File: notebooks/example_data/xrd_phase_identification/CeO2_wl=0.1820.xy
0.831674 23.6875
0.842753 23.5263
0.853831 23.3074
0.864909 23.1962
0.875988 23.1204
0.887066 23.0496
0.898145 22.8686
0.909223 22.7096
0.920302 22.5523
0.93138 22.5603
0.942459 22.3957
0.953537 22.3733
0.964615 22.2209
0.975694 22.2044
0.986773 22.1123
0.997851 21.9043
1.00893 21.8195
1.02001 21.8337
1.03109 21.7716
1.04217 21.7006
1.05324 21.6175
1.06432 21.2327
1.0754 21.3052
1.08648 21.2623
1.09756 21.1938
1.10864 21.2134
1.11972 21.1102
1.13079 21.082
1.14187 20.9937
1.15295 21.0622
1.16403 21.0158
1.17511 20.9478
1.18619 20.9256
1.19727 20.88
1.20834 20.8559
1.21942 20.9098
1.2305 20.8499
1.24158 21.0073
1.25266 21.0495
1.26374 20.9602
1.27482 20.9711
1.2859 20.9969
1.29697 21.0243
1.30805 20.9715
1.31913 21.0307
1.33021 21.0371
1.34129 21.0037
1.35237 20.9901
1.36345 21.0966
1.37453 21.0268
1.38561 20.9956
1.39668 20.9608
1.40776 20.9143
1.41884 20.8987
1.42992 20.8232
1.441 20.8249
1.45208 20.8068
1.46316 20.8564
1.47424 20.7922
1.48532 20.7176
1.4964 20.7402
1.50747 20.6789
1.51855 20.6636
1.52963 20.6776
1.54071 20.618
1.55179 20.564
1.56287 20.624
1.57395 20.6351
1.58503 20.5763
1.59611 20.5338
1.60719 20.5202
1.61827 20.5286
1.62935 20.5076
1.64042 20.4207
1.6515 20.4691
1.66258 20.447
1.67366 20.3995
1.68474 20.3572
1.69582 20.3898
1.7069 20.3564
1.71798 20.3934
1.72906 20.4342
1.74014 20.4305
1.75122 20.453
1.7623 20.4346
1.77338 20.4142
1.78446 20.4699
1.79554 20.4595
1.80661 20.4355
1.81769 20.4338
1.82877 20.3952
1.83985 20.4319
1.85093 20.4303
1.86201 20.4594
1.87309 20.4614
1.88417 20.3971
1.89525 20.4433
1.90633 20.3992
1.91741 20.4488
1.92849 20.4464
1.93957 20.5022
1.95065 20.4739
1.96173 20.4405
1.97281 20.3614
1.98389 20.3636
1.99497 20.3978
2.00605 20.3675
2.01713 20.2813
2.02821 20.2942
2.03929 20.3594
2.05037 20.334
2.06145 20.3388
2.07253 20.2819
2.08361 20.2602
2.09469 20.2761
2.10577 20.2388
2.11685 20.1953
2.12793 20.1689
2.13901 20.2138
2.15009 20.2101
2.16117 20.1308
2.17225 20.0585
2.18333 19.9697
2.19441 19.9354
2.20549 19.9446
2.21657 19.9425
2.22765 19.9424
2.23873 19.8417
2.24981 19.8824
2.26089 19.8476
2.27197 19.7865
2.28305 19.7566
2.29413 19.7502
2.30521 19.7146
2.31629 19.6098
2.32737 19.525
2.33845 19.5253
2.34953 19.4804
2.36061 19.4187
2.37169 19.415
2.38277 19.367
2.39385 19.3556
2.40493 19.3596
2.41601 19.259
2.4271 19.229
2.43818 19.1942
2.44926 19.1698
2.46034 19.1106
2.47142 19.1394
2.4825 18.9219
2.49358 18.9721
2.50466 18.9526
2.51574 18.9244
2.52682 18.9143
2.5379 18.8754
2.54898 18.8789
2.56006 18.8603
2.57115 18.8175
2.58223 18.7673
2.59331 18.7635
2.60439 18.6317
2.61547 18.6365
2.62655 18.6396
2.63763 18.5876
2.64871 18.5667
2.65979 18.5493
2.67087 18.4879
2.68196 18.4847
2.69304 18.4695
2.70412 18.4303
2.7152 18.4233
2.72628 18.3814
2.73736 18.3722
2.74844 18.3584
2.75952 18.3775
2.77061 18.3569
2.78169 18.3385
2.79277 18.3283
2.80385 18.2508
2.81493 18.2656
2.82601 18.2669
2.83709 18.2329
2.84818 18.2069
2.85926 18.1565
2.87034 18.2131
2.88142 18.243
2.8925 18.1776
2.90358 18.1891
2.91466 18.244
2.92575 18.2584
2.93683 18.2706
2.94791 18.2042
2.95899 18.1554
2.97007 18.217
2.98116 18.2272
2.99224 18.2436
3.00332 18.2698
3.0144 18.3142
3.02548 18.4051
3.03657 18.4671
3.04765 18.4996
3.05873 18.5377
3.06981 18.5658
3.08089 18.6447
3.09198 18.7365
3.10306 18.8064
3.11414 18.9405
3.12522 19.1654
3.1363 19.306
3.14739 19.5053
3.15847 19.7617
3.16955 20.0574
3.18063 20.4157
3.19172 20.8691
3.2028 21.4397
3.21388 22.2167
3.22496 23.2466
3.23605 24.6205
3.24713 26.7012
3.25821 30.0396
3.26929 35.6859
3.28038 46.3094
3.29146 69.5275
3.30254 129.727
3.31362 291.917
3.32471 550.407
3.33579 747.224
3.34687 699.614
3.35796 457.48
3.36904 211.979
3.38012 97.3976
3.3912 56.7354
3.40229 39.9366
3.41337 31.7259
3.42445 27.276
3.43554 24.6069
3.44662 22.7575
3.4577 21.5154
3.46879 20.5946
3.47987 19.8496
3.49095 19.2418
3.50204 18.7884
3.51312 18.398
3.5242 18.1245
3.53529 17.8883
3.54637 17.6293
3.55745 17.4818
3.56854 17.3066
3.57962 17.1373
3.5907 17.0409
3.60179 16.9634
3.61287 16.8217
3.62395 16.7747
3.63504 16.7423
3.64612 16.7221
3.6572 16.6498
3.66829 16.614
3.67937 16.6383
3.69046 16.6773
3.70154 16.7148
3.71262 16.8083
3.72371 16.9259
3.73479 17.0873
3.74588 17.3871
3.75696 17.7974
3.76804 18.4587
3.77913 19.4448
3.79021 21.3788
3.8013 25.2859
3.81238 34.5841
3.82346 60.6595
3.83455 122.372
3.84563 192.765
3.85672 225.922
3.8678 184.125
3.87889 109.749
3.88997 53.5258
3.90106 31.5625
3.91214 23.5141
3.92322 20.0975
3.93431 18.3059
3.94539 17.2803
3.95648 16.6703
3.96756 16.1937
3.97865 15.8748
3.98973 15.6279
4.00082 15.3869
4.0119 15.1924
4.02299 15.0756
4.03407 14.9329
4.04516 14.8202
4.05624 14.7357
4.06733 14.675
4.07841 14.5632
4.0895 14.4891
4.10058 14.472
4.11167 14.3839
4.12275 14.3443
4.13384 14.3127
4.14492 14.2704
4.15601 14.2134
4.16709 14.1537
4.17818 14.1135
4.18927 14.0553
4.20035 14.0467
4.21144 14.0306
4.22252 13.9635
4.23361 13.9613
4.24469 13.9314
4.25578 13.8719
4.26687 13.8691
4.27795 13.822
4.28904 13.8282
4.30012 13.7928
4.31121 13.8069
4.32229 13.7678
4.33338 13.7275
4.34447 13.7
4.35555 13.7108
4.36664 13.7071
4.37773 13.6988
4.38881 13.6309
4.3999 13.5622
4.41098 13.614
4.42207 13.5641
4.43316 13.5569
4.44424 13.5484
4.45533 13.5244
4.46642 13.471
4.4775 13.4711
4.48859 13.4395
4.49968 13.4271
4.51076 13.4394
4.52185 13.411
4.53294 13.3643
4.54402 13.3334
4.55511 13.3431
4.5662 13.3272
4.57728 13.353
4.58837 13.3029
4.59946 13.2551
4.61054 13.2288
4.62163 13.2304
4.63272 13.2299
4.64381 13.2186
4.65489 13.1872
4.66598 13.2116
4.67707 13.168
4.68816 13.1438
4.69924 13.1901
4.71033 13.1671
4.72142 13.1571
4.7325 13.1758
4.74359 13.1618
4.75468 13.1829
4.76577 13.1911
4.77686 13.1491
4.78794 13.1336
4.79903 13.1356
4.81012 13.1624
4.82121 13.1806
4.83229 13.1486
4.84338 13.1541
4.85447 13.1477
4.86556 13.1568
4.87665 13.1322
4.88774 13.1224
4.89882 13.1619
4.90991 13.147
4.921 13.147
4.93209 13.1709
4.94318 13.1411
4.95427 13.1577
4.96535 13.154
4.97644 13.1791
4.98753 13.2085
4.99862 13.1964
5.00971 13.1942
5.0208 13.2455
5.03189 13.2699
5.04297 13.2754
5.05406 13.273
5.06515 13.305
5.07624 13.3382
5.08733 13.3872
5.09842 13.3926
5.10951 13.431
5.1206 13.4515
5.13169 13.4825
5.14278 13.5314
5.15387 13.6197
5.16495 13.6413
5.17604 13.7002
5.18713 13.742
5.19822 13.8344
5.20931 13.9127
5.2204 14.0139
5.23149 14.0837
5.24258 14.2084
5.25367 14.3351
5.26476 14.4963
5.27585 14.7347
5.28694 14.9605
5.29803 15.2424
5.30912 15.5798
5.32021 16.002
5.3313 16.5461
5.34239 17.3473
5.35348 18.4492
5.36457 20.0591
5.37566 22.659
5.38675 27.1857
5.39784 35.9237
5.40893 55.191
5.42002 104.842
5.43111 219.317
5.4422 363.296
5.45329 444.9
5.46439 385.888
5.47548 243.341
5.48657 118.685
5.49766 59.8889
5.50875 37.3326
5.51984 27.5473
5.53093 22.6382
5.54202 19.9405
5.55311 18.2443
5.5642 17.1329
5.5753 16.3315
5.58639 15.7423
5.59748 15.2546
5.60857 14.902
5.61966 14.6168
5.63075 14.3715
5.64184 14.1635
5.65294 14.0007
5.66403 13.8882
5.67512 13.7881
5.68621 13.6782
5.6973 13.5792
5.70839 13.484
5.71949 13.4213
5.73058 13.3621
5.74167 13.2623
5.75276 13.2384
5.76385 13.1788
5.77495 13.1374
5.78604 13.1149
5.79713 13.0711
5.80822 13.0343
5.81932 13.0274
5.83041 13.0078
5.8415 12.9877
5.85259 12.9883
5.86369 12.9726
5.87478 12.9659
5.88587 12.9345
5.89696 12.931
5.90806 12.9203
5.91915 12.9045
5.93024 12.932
5.94133 12.9094
5.95243 12.8935
5.96352 12.8667
5.97461 12.8745
5.98571 12.8883
5.9968 12.8917
6.00789 12.9093
6.01899 12.9203
6.03008 12.9787
6.04117 12.9794
6.05227 13.0068
6.06336 13.0387
6.07445 13.027
6.08555 13.0594
6.09664 13.1234
6.10774 13.1586
6.11883 13.1844
6.12992 13.2544
6.14102 13.3084
6.15211 13.406
6.16321 13.4706
6.1743 13.5594
6.18539 13.6744
6.19649 13.776
6.20758 13.9286
6.21868 14.1167
6.22977 14.3624
6.24087 14.6218
6.25196 14.9531
6.26306 15.3481
6.27415 15.8712
6.28525 16.6498
6.29634 17.628
6.30744 19.1613
6.31853 21.5765
6.32963 25.7693
6.34072 33.9386
6.35182 52.3742
6.36291 99.5452
6.37401 201.852
6.3851 319.512
6.3962 373.74
6.40729 310.869
6.41839 189.925
6.42948 93.8791
6.44058 49.5986
6.45167 32.3286
6.46277 24.743
6.47387 20.8542
6.48496 18.6762
6.49606 17.2812
6.50715 16.3874
6.51825 15.7507
6.52935 15.314
6.54044 15.0049
6.55154 14.7822
6.56263 14.6495
6.57373 14.596
6.58483 14.6923
6.59592 14.9201
6.60702 15.358
6.61812 16.2478
6.62921 18.1837
6.64031 22.9522
6.65141 34.995
6.6625 56.4719
6.6736 75.1476
6.6847 78.0965
6.69579 61.0668
6.70689 38.9449
6.71799 24.5202
6.72909 18.3693
6.74018 15.7775
6.75128 14.6078
6.76238 13.9378
6.77347 13.5443
6.78457 13.2736
6.79567 13.1184
6.80677 12.9229
6.81787 12.8602
6.82896 12.7656
6.84006 12.6412
6.85116 12.5816
6.86226 12.523
6.87335 12.4754
6.88445 12.4229
6.89555 12.3827
6.90665 12.3552
6.91775 12.308
6.92885 12.2976
6.93994 12.2772
6.95104 12.2176
6.96214 12.19
6.97324 12.2217
6.98434 12.1897
6.99544 12.1916
7.00654 12.1803
7.01764 12.1215
7.02873 12.1302
7.03983 12.0953
7.05093 12.0784
7.06203 12.0794
7.07313 12.0587
7.08423 12.0339
7.09533 12.0276
7.10643 12.0286
7.11753 12.014
7.12863 12.0011
7.13973 12.0168
7.15083 11.9764
7.16193 11.9667
7.17303 11.9946
7.18413 11.995
7.19523 11.9707
7.20633 11.9689
7.21743 11.9877
7.22853 11.963
7.23963 11.9784
7.25073 11.9723
7.26183 11.9598
7.27293 11.9554
7.28403 11.9287
7.29513 11.954
7.30623 11.9449
7.31733 11.9473
7.32843 11.9691
7.33953 11.9674
7.35063 11.986
7.36173 11.9596
7.37283 11.9735
7.38394 11.9853
7.39504 11.96
7.40614 11.9524
7.41724 11.9623
7.42834 11.9871
7.43944 11.9682
7.45054 12.0048
7.46165 12.0243
7.47275 12.0431
7.48385 12.0505
7.49495 12.0933
7.50605 12.0846
7.51715 12.1553
7.52826 12.2076
7.53936 12.2157
7.55046 12.2735
7.56156 12.3072
7.57267 12.3804
7.58377 12.4547
7.59487 12.5813
7.60597 12.7068
7.61708 12.9126
7.62818 13.2291
7.63928 13.7287
7.65038 14.5747
7.66149 16.269
7.67259 20.3124
7.68369 30.7709
7.6948 51.7517
7.7059 73.7929
7.717 81.729
7.7281 67.4683
7.73921 43.8031
7.75031 26.3214
7.76142 18.4477
7.77252 15.4338
7.78362 14.115
7.79473 13.4933
7.80583 13.1362
7.81693 12.8978
7.82804 12.702
7.83914 12.5679
7.85025 12.4553
7.86135 12.3883
7.87245 12.3516
7.88356 12.336
7.89466 12.2984
7.90577 12.2927
7.91687 12.2599
7.92798 12.2543
7.93908 12.247
7.95019 12.2194
7.96129 12.2245
7.9724 12.216
7.9835 12.2193
7.99461 12.2104
8.00571 12.2049
8.01682 12.2276
8.02792 12.2776
8.03903 12.2696
8.05013 12.2673
8.06124 12.2523
8.07234 12.3024
8.08345 12.3101
8.09456 12.3534
8.10566 12.3749
8.11677 12.4124
8.12787 12.4504
8.13898 12.4691
8.15009 12.4428
8.16119 12.4885
8.1723 12.5376
8.1834 12.5925
8.19451 12.6464
8.20562 12.7143
8.21672 12.7962
8.22783 12.8997
8.23894 13.0424
8.25004 13.1746
8.26115 13.3112
8.27226 13.5139
8.28337 13.7678
8.29447 14.1262
8.30558 14.6002
8.31669 15.298
8.32779 16.3403
8.3389 18.0474
8.35001 21.2014
8.36112 27.7761
8.37222 43.2634
8.38333 77.4438
8.39444 125.31
8.40555 156.681
8.41666 148.296
8.42776 105.592
8.43887 61.1247
8.44998 35.495
8.46109 24.6044
8.4722 19.9414
8.48331 17.6829
8.49441 16.463
8.50552 15.8242
8.51663 15.4956
8.52774 15.4595
8.53885 15.6655
8.54996 16.1763
8.56107 17.2646
8.57218 19.5574
8.58329 24.8418
8.5944 37.8341
8.6055 64.2411
8.61661 94.7974
8.62772 108.986
8.63883 94.5861
8.64994 63.7015
8.66105 37.4457
8.67216 24.2029
8.68327 18.7631
8.69438 16.3377
8.70549 15.0775
8.7166 14.3777
8.72771 13.9002
8.73882 13.56
8.74993 13.3391
8.76104 13.1506
8.77216 13.0072
8.78327 12.8848
8.79438 12.8098
8.80549 12.7129
8.8166 12.65
8.82771 12.6145
8.83882 12.5633
8.84993 12.5046
8.86104 12.4658
8.87215 12.433
8.88327 12.4084
8.89438 12.4157
8.90549 12.3597
8.9166 12.3269
8.92771 12.3388
8.93882 12.3159
8.94994 12.2671
8.96105 12.2521
8.97216 12.2446
8.98327 12.2255
8.99438 12.2411
9.0055 12.2378
9.01661 12.2424
9.02772 12.2452
9.03883 12.2047
9.04995 12.233
9.06106 12.2216
9.07217 12.2075
9.08329 12.2106
9.0944 12.226
9.10551 12.2272
9.11663 12.1959
9.12774 12.2407
9.13885 12.2699
9.14997 12.2707
9.16108 12.3006
9.17219 12.3182
9.18331 12.352
9.19442 12.3976
9.20553 12.4093
9.21665 12.4487
9.22776 12.4946
9.23888 12.5158
9.24999 12.5738
9.26111 12.6546
9.27222 12.7319
9.28333 12.8227
9.29445 12.938
9.30556 13.0916
9.31668 13.2842
9.32779 13.5051
9.33891 13.8329
9.35002 14.2713
9.36114 14.9183
9.37225 15.8999
9.38337 17.5729
9.39448 20.5754
9.4056 26.8224
9.41671 41.332
9.42783 72.0342
9.43895 113.785
9.45006 140.356
9.46118 132.573
9.47229 95.3323
9.48341 56.0207
9.49453 33.0603
9.50564 23.064
9.51676 18.6501
9.52788 16.4772
9.53899 15.2435
9.55011 14.4328
9.56123 13.91
9.57234 13.5428
9.58346 13.2904
9.59458 13.0788
9.60569 12.9287
9.61681 12.8293
9.62793 12.7085
9.63905 12.6178
9.65016 12.531
9.66128 12.5154
9.6724 12.4745
9.68352 12.4395
9.69463 12.4065
9.70575 12.3775
9.71687 12.3578
9.72799 12.3198
9.73911 12.3402
9.75022 12.367
9.76134 12.3545
9.77246 12.3319
9.78358 12.3386
9.7947 12.3575
9.80582 12.3655
9.81694 12.4033
9.82805 12.4363
9.83917 12.4723
9.85029 12.5387
9.86141 12.6249
9.87253 12.736
9.88365 12.8576
9.89477 12.9871
9.90589 13.2158
9.91701 13.5022
9.92813 13.9
9.93925 14.4827
9.95037 15.3583
9.96149 16.9025
9.97261 19.8728
9.98373 26.3963
9.99485 41.7652
10.006 71.366
10.0171 105.091
10.0282 120.427
10.0393 105.132
10.0505 71.0707
10.0616 41.3518
10.0727 25.871
10.0838 19.4224
10.0949 16.5472
10.1061 15.0422
10.1172 14.2007
10.1283 13.6361
10.1394 13.2633
10.1505 13.017
10.1617 12.784
10.1728 12.6213
10.1839 12.5176
10.195 12.4116
10.2062 12.3187
10.2173 12.2593
10.2284 12.2043
10.2395 12.1339
10.2506 12.0819
10.2618 12.0637
10.2729 12.0326
10.284 11.9687
10.2951 11.9407
10.3063 11.9185
10.3174 11.8944
10.3285 11.8917
10.3396 11.8609
10.3508 11.846
10.3619 11.8238
10.373 11.8052
10.3841 11.7887
10.3952 11.7985
10.4064 11.7991
10.4175 11.7934
10.4286 11.7752
10.4397 11.7587
10.4509 11.7886
10.462 11.7808
10.4731 11.7697
10.4842 11.7485
10.4954 11.7499
10.5065 11.7397
10.5176 11.7308
10.5287 11.7499
10.5399 11.7837
10.551 11.779
10.5621 11.7859
10.5732 11.7712
10.5844 11.7574
10.5955 11.7691
10.6066 11.7702
10.6177 11.8
10.6289 11.8254
10.64 11.8366
10.6511 11.8391
10.6622 11.8389
10.6734 11.8412
10.6845 11.8959
10.6956 11.9031
10.7068 11.9222
10.7179 11.9379
10.729 11.9764
10.7401 11.9805
10.7513 11.9924
10.7624 12.0809
10.7735 12.1358
10.7846 12.1898
10.7958 12.2979
10.8069 12.4119
10.818 12.5807
10.8292 12.7998
10.8403 13.1308
10.8514 13.6599
10.8625 14.6182
10.8737 16.5816
10.8848 20.993
10.8959 30.0078
10.907 41.8758
10.9182 49.5567
10.9293 47.002
10.9404 36.1821
10.9516 24.7772
10.9627 18.1808
10.9738 15.3251
10.9849 14.0512
10.9961 13.3939
11.0072 13.0018
11.0183 12.7755
11.0295 12.619
11.0406 12.5484
11.0517 12.4887
11.0629 12.4261
11.074 12.3672
11.0851 12.332
11.0962 12.341
11.1074 12.3082
11.1185 12.3145
11.1296 12.3281
11.1408 12.3383
11.1519 12.3726
11.163 12.392
11.1742 12.426
11.1853 12.4587
11.1964 12.5049
11.2076 12.5444
11.2187 12.5994
11.2298 12.6723
11.2409 12.7448
11.2521 12.8305
11.2632 12.9622
11.2743 13.0846
11.2855 13.2729
11.2966 13.4836
11.3077 13.8148
11.3189 14.2122
11.33 14.7686
11.3411 15.634
11.3523 17.0082
11.3634 19.4417
11.3745 24.4361
11.3857 35.6036
11.3968 58.5956
11.4079 90.4878
11.4191 111.241
11.4302 106.821
11.4413 79.4997
11.4525 49.0161
11.4636 30.5515
11.4747 22.4032
11.4859 18.9084
11.497 17.2882
11.5081 16.6754
11.5193 16.7007
11.5304 17.6589
11.5415 20.2552
11.5527 26.6905
11.5638 38.7735
11.5749 51.986
11.5861 57.0319
11.5972 50.4714
11.6084 36.5747
11.6195 24.8053
11.6306 18.5742
11.6418 15.8989
11.6529 14.6273
11.664 13.9142
11.6752 13.4899
11.6863 13.1452
11.6974 12.9715
11.7086 12.8192
11.7197 12.6716
11.7308 12.5732
11.742 12.5051
11.7531 12.4163
11.7643 12.3658
11.7754 12.3247
11.7865 12.2733
11.7977 12.2636
11.8088 12.2649
11.8199 12.2383
11.8311 12.1931
11.8422 12.1907
11.8534 12.1704
11.8645 12.1464
11.8756 12.1258
11.8868 12.1017
11.8979 12.0723
11.909 12.0696
11.9202 12.0592
11.9313 12.0644
11.9425 12.0792
11.9536 12.1085
11.9647 12.0582
11.9759 12.0447
11.987 12.0784
11.9982 12.0662
12.0093 12.1165
12.0204 12.1387
12.0316 12.1902
12.0427 12.2333
12.0538 12.2523
12.065 12.3521
12.0761 12.3941
12.0873 12.4746
12.0984 12.6121
12.1095 12.7961
12.1207 13.0195
12.1318 13.4054
12.143 14.0518
12.1541 15.2348
12.1653 17.4778
12.1764 22.5652
12.1875 33.2384
12.1987 48.9466
12.2098 60.4461
12.221 59.4311
12.2321 46.4774
12.2432 31.0299
12.2544 21.2646
12.2655 16.7597
12.2767 14.8028
12.2878 13.8211
12.2989 13.2491
12.3101 12.8811
12.3212 12.6742
12.3324 12.5505
12.3435 12.4409
12.3547 12.3359
12.3658 12.2873
12.3769 12.2064
12.3881 12.1682
12.3992 12.1364
12.4104 12.0946
12.4215 12.0808
12.4327 12.0751
12.4438 12.1097
12.455 12.1417
12.4661 12.1235
12.4772 12.136
12.4884 12.1363
12.4995 12.1637
12.5107 12.214
12.5218 12.247
12.533 12.3038
12.5441 12.4284
12.5553 12.559
12.5664 12.6824
12.5775 12.9469
12.5887 13.3301
12.5998 13.8967
12.611 14.9749
12.6221 17.2569
12.6333 22.069
12.6444 30.5549
12.6556 40.06
12.6667 44.1792
12.6779 40.1921
12.689 30.6128
12.7001 22.1374
12.7113 17.3841
12.7224 15.3455
12.7336 14.5645
12.7447 14.3623
12.7559 14.6732
12.767 15.8256
12.7782 18.7168
12.7893 24.5007
12.8005 31.7459
12.8116 35.8787
12.8228 33.9088
12.8339 27.0782
12.8451 20.1711
12.8562 15.99
12.8674 14.1028
12.8785 13.2805
12.8897 12.8291
12.9008 12.4936
12.912 12.3052
12.9231 12.204
12.9342 12.0707
12.9454 11.9853
12.9565 11.9397
12.9677 11.9383
12.9788 11.9229
12.99 11.8963
13.0011 11.8746
13.0123 11.8497
13.0234 11.742
13.0346 11.7419
13.0457 11.7828
13.0569 11.7414
13.068 11.7066
13.0792 11.7461
13.0903 11.7287
13.1015 11.7015
13.1126 11.7359
13.1238 11.7011
13.135 11.7119
13.1461 11.6882
13.1573 11.6771
13.1684 11.7418
13.1796 11.7137
13.1907 11.7259
13.2019 11.7395
13.213 11.7501
13.2242 11.7373
13.2353 11.7761
13.2465 11.7942
13.2576 11.7724
13.2688 11.756
13.2799 11.8372
13.2911 11.938
13.3022 12.0718
13.3134 12.2409
13.3245 12.5303
13.3357 13.014
13.3468 14.0652
13.358 16.2161
13.3692 19.3306
13.3803 21.8883
13.3915 22.101
13.4026 19.8071
13.4138 16.623
13.4249 14.2919
13.4361 13.1368
13.4472 12.5798
13.4584 12.2691
13.4695 12.1404
13.4807 12.0476
13.4919 11.9615
13.503 11.896
13.5142 11.9354
13.5253 11.9857
13.5365 11.9656
13.5476 11.9194
13.5588 11.9837
13.5699 12.0369
13.5811 11.9902
13.5923 11.9946
13.6034 12.0216
13.6146 12.1657
13.6257 12.1682
13.6369 12.1822
13.648 12.231
13.6592 12.3301
13.6704 12.5053
13.6815 12.6428
13.6927 12.7512
13.7038 13.1138
13.715 13.4521
13.7261 14.0617
13.7373 15.1346
13.7485 17.0574
13.7596 21.2319
13.7708 29.7577
13.7819 43.122
13.7931 55.3224
13.8043 57.6313
13.8154 49.191
13.8266 35.2183
13.8377 24.2497
13.8489 18.7166
13.8601 16.2812
13.8712 15.3601
13.8824 15.3584
13.8935 16.2966
13.9047 18.8605
13.9159 23.323
13.927 27.5532
13.9382 28.9081
13.9493 26.4925
13.9605 21.5339
13.9717 17.2366
13.9828 14.72
13.994 13.6539
14.0051 13.1111
14.0163 12.7956
14.0275 12.5614
14.0386 12.4365
14.0498 12.4005
14.0609 12.3052
14.0721 12.2636
14.0833 12.2009
14.0944 12.1439
14.1056 12.188
14.1168 12.155
14.1279 12.0592
14.1391 12.1069
14.1502 12.1841
14.1614 12.1637
14.1726 12.0875
14.1837 12.0418
14.1949 12.074
14.2061 12.084
14.2172 12.0598
14.2284 12.1297
14.2396 12.2003
14.2507 12.2085
14.2619 12.2286
14.2731 12.2749
14.2842 12.2754
14.2954 12.3413
14.3065 12.468
14.3177 12.553
14.3289 12.649
14.34 12.7007
14.3512 12.9283
14.3624 13.0867
14.3735 13.4887
14.3847 14.0542
14.3959 14.8425
14.407 16.3818
14.4182 19.2169
14.4294 25.3054
14.4405 36.0983
14.4517 49.7887
14.4629 57.8762
14.474 55.9241
14.4852 44.5359
14.4964 30.9327
14.5075 21.9628
14.5187 17.6058
14.5299 15.4184
14.541 14.4585
14.5522 13.8221
14.5634 13.3589
14.5745 13.049
14.5857 12.8638
14.5969 12.8073
14.6081 12.6625
14.6192 12.6765
14.6304 12.5524
14.6416 12.46
14.6527 12.46
14.6639 12.4625
14.6751 12.4793
14.6862 12.6035
14.6974 12.6334
14.7086 12.7434
14.7197 12.8179
14.7309 12.9062
14.7421 13.095
14.7533 13.3965
14.7644 13.821
14.7756 14.4063
14.7868 15.6353
14.7979 17.8789
14.8091 22.427
14.8203 31.6197
14.8315 45.4637
14.8426 57.9673
14.8538 61.3075
14.865 53.3708
14.8761 38.9742
14.8873 26.6467
14.8985 19.7192
14.9097 16.3996
14.9208 14.8145
14.932 13.8806
14.9432 13.3087
14.9543 12.9032
14.9655 12.7577
14.9767 12.6222
14.9879 12.4159
14.999 12.296
15.0102 12.1432
15.0214 12.0353
15.0326 12.0597
15.0437 12.046
15.0549 11.9905
15.0661 11.9166
15.0773 12.0298
15.0884 11.8527
15.0996 11.7773
15.1108 11.7137
15.122 11.7058
15.1331 11.7515
15.1443 11.7144
15.1555 11.6762
15.1667 11.6345
15.1778 11.7118
15.189 11.5976
15.2002 11.579
15.2114 11.5779
15.2225 11.5423
15.2337 11.646
15.2449 11.6984
15.2561 11.5095
15.2673 11.5125
15.2784 11.6338
15.2896 11.4733
15.3008 11.5876
15.312 11.699
15.3231 11.6859
15.3343 11.7769
15.3455 11.8614
15.3567 11.8282
15.3679 11.7469
15.379 11.6956
15.3902 11.734
15.4014 12.0354
15.4126 12.1228
15.4237 12.2135
15.4349 12.9811
15.4461 14.0284
15.4573 15.7146
15.4685 16.7276
15.4796 16.5721
15.4908 15.5719
15.502 14.0246
15.5132 12.9906
15.5244 12.3408
15.5355 12.2191
15.5467 12.0237
15.5579 12.0757
15.5691 11.9235
15.5803 12.1996
15.5915 12.101
15.6026 12.1621
15.6138 12.1761
15.625 12.1411
15.6362 12.0835
15.6474 12.2784