File: notebooks/example_data/xrd_phase_identification/unknown_xrd_4_wl=0.1814Angst.xy
1.15988 28.9522
1.17154 28.8707
1.18321 28.9223
1.19487 28.8089
1.20653 28.8446
1.21819 28.9889
1.22986 28.7731
1.24152 28.7229
1.25318 28.8117
1.26485 28.8446
1.27651 28.6104
1.28817 28.629
1.29983 28.7664
1.3115 28.7329
1.32316 28.5604
1.33482 28.5083
1.34648 28.4839
1.35815 28.4406
1.36981 28.5295
1.38147 28.2134
1.39313 27.974
1.4048 28.0452
1.41646 28.0465
1.42812 28.0444
1.43979 27.7954
1.45145 27.8941
1.46311 27.9392
1.47477 27.7544
1.48644 27.5861
1.4981 27.4713
1.50976 27.4429
1.52143 27.4777
1.53309 27.3717
1.54475 27.2744
1.55641 27.2316
1.56808 27.2173
1.57974 27.0636
1.5914 27.0767
1.60307 27.0264
1.61473 26.9778
1.62639 26.997
1.63806 26.9513
1.64972 26.6375
1.66138 26.8219
1.67305 26.7881
1.68471 26.6142
1.69637 26.5697
1.70803 26.6112
1.7197 26.7202
1.73136 26.556
1.74302 26.4571
1.75469 26.4515
1.76635 26.5486
1.77801 26.3916
1.78968 26.4292
1.80134 26.462
1.813 26.4172
1.82467 26.4372
1.83633 26.3241
1.84799 26.2886
1.85966 26.3212
1.87132 26.3539
1.88298 26.3505
1.89465 26.1332
1.90631 26.1553
1.91798 26.2634
1.92964 26.2012
1.9413 26.1559
1.95297 26.0278
1.96463 25.9388
1.97629 26.0281
1.98796 25.9744
1.99962 25.9865
2.01128 25.8332
2.02295 26.0519
2.03461 25.9373
2.04628 25.8857
2.05794 25.8077
2.0696 25.6978
2.08127 25.9605
2.09293 25.9061
2.10459 25.6976
2.11626 25.6455
2.12792 25.5405
2.13959 25.5882
2.15125 25.367
2.16291 25.5031
2.17458 25.4713
2.18624 25.3811
2.19791 25.4314
2.20957 25.3156
2.22123 24.9219
2.2329 25.032
2.24456 25.0488
2.25623 24.9369
2.26789 24.9995
2.27955 24.925
2.29122 24.6517
2.30288 24.7897
2.31455 24.6118
2.32621 24.5522
2.33788 24.5599
2.34954 24.5447
2.3612 24.3878
2.37287 24.4351
2.38453 24.2528
2.3962 24.2599
2.40786 24.1487
2.41953 24.0678
2.43119 24.1007
2.44286 23.9916
2.45452 23.8938
2.46619 23.9546
2.47785 23.7697
2.48951 23.7885
2.50118 23.8607
2.51284 23.8542
2.52451 23.8105
2.53617 23.7188
2.54784 23.874
2.5595 23.8198
2.57117 23.741
2.58283 23.6168
2.5945 23.4155
2.60616 23.5953
2.61783 23.397
2.62949 23.2704
2.64116 23.3459
2.65282 23.4544
2.66449 23.3317
2.67615 23.3146
2.68782 23.382
2.69948 23.2257
2.71115 23.2769
2.72281 23.2955
2.73448 23.238
2.74614 23.245
2.75781 23.2777
2.76947 23.2439
2.78114 23.0805
2.7928 23.1384
2.80447 23.1023
2.81614 23.1264
2.8278 23.2231
2.83947 23.2445
2.85113 23.1529
2.8628 23.1896
2.87446 23.1498
2.88613 23.2962
2.89779 23.2288
2.90946 23.0783
2.92113 22.9777
2.93279 23.2203
2.94446 23.3594
2.95612 23.079
2.96779 23.1787
2.97945 23.0961
2.99112 23.1536
3.00279 23.1909
3.01445 23.213
3.02612 23.0479
3.03778 23.0774
3.04945 23.1346
3.06112 23.0391
3.07278 23.1039
3.08445 23.2495
3.09611 23.1597
3.10778 23.0681
3.11945 23.0164
3.13111 23.1237
3.14278 23.0491
3.15445 23.018
3.16611 23.0201
3.17778 22.9889
3.18944 22.9553
3.20111 23.0634
3.21278 22.9264
3.22444 22.8839
3.23611 22.8751
3.24778 22.913
3.25944 22.8511
3.27111 22.8991
3.28278 23.0424
3.29444 23.1375
3.30611 23.1637
3.31778 23.5655
3.32944 24.7335
3.34111 30.5164
3.35278 77.1208
3.36444 170.016
3.37611 157.787
3.38778 64.8262
3.39945 29.6496
3.41111 24.4999
3.42278 23.5875
3.43445 23.2505
3.44611 22.8981
3.45778 22.8584
3.46945 22.9506
3.48112 22.7927
3.49278 22.9325
3.50445 22.9261
3.51612 22.9013
3.52778 23.0819
3.53945 23.5436
3.55112 23.8765
3.56279 23.5478
3.57445 23.389
3.58612 23.1929
3.59779 23.3944
3.60946 23.6356
3.62113 23.79
3.63279 23.8964
3.64446 24.1447
3.65613 24.365
3.6678 24.5442
3.67946 24.7434
3.69113 25.0266
3.7028 25.1851
3.71447 25.5952
3.72614 26.0167
3.7378 26.3904
3.74947 26.843
3.76114 27.5643
3.77281 28.3586
3.78448 29.4592
3.79615 30.889
3.80781 32.8228
3.81948 35.5002
3.83115 40.0365
3.84282 48.3485
3.85449 70.6552
3.86616 247.77
3.87782 2276.97
3.88949 4672.43
3.90116 2630.42
3.91283 444.554
3.9245 86.3318
3.93617 51.0017
3.94784 41.2097
3.95951 36.3996
3.97117 33.2931
3.98284 31.5295
3.99451 30.2091
4.00618 29.3214
4.01785 28.3938
4.02952 28.0394
4.04119 27.7903
4.05286 27.5669
4.06453 27.618
4.0762 27.4684
4.08787 26.8609
4.09953 26.1496
4.1112 25.5312
4.12287 24.9566
4.13454 24.4364
4.14621 24.0298
4.15788 23.6045
4.16955 23.3731
4.18122 23.1448
4.19289 22.9092
4.20456 22.715
4.21623 22.4931
4.2279 22.484
4.23957 22.4377
4.25124 22.1643
4.26291 22.1105
4.27458 21.9887
4.28625 22.0851
4.29792 22.0937
4.30959 21.9259
4.32126 21.829
4.33293 21.8465
4.3446 22.0138
4.35627 22.1097
4.36794 22.13
4.37961 22.2601
4.39128 22.5829
4.40295 23.145
4.41462 24.276
4.42629 26.3902
4.43796 38.4407
4.44964 194.978
4.46131 478.362
4.47298 469.665
4.48465 523.397
4.49632 413.675
4.50799 124.603
4.51966 36.1982
4.53133 25.7885
4.543 23.5902
4.55467 22.6193
4.56634 22.0051
4.57802 21.8213
4.58969 21.2323
4.60136 21.0331
4.61303 20.815
4.6247 20.9146
4.63637 20.8751
4.64804 20.9817
4.65972 21.1595
4.67139 21.2618
4.68306 20.9936
4.69473 20.6512
4.7064 20.3619
4.71807 20.0543
4.72975 19.7795
4.74142 19.4948
4.75309 19.2629
4.76476 19.0731
4.77643 18.9691
4.78811 18.9935
4.79978 18.9847
4.81145 18.8364
4.82312 18.7176
4.83479 18.6654
4.84647 18.65
4.85814 18.6388
4.86981 18.6041
4.88148 18.5766
4.89316 18.6112
4.90483 18.5539
4.9165 18.5064
4.92817 18.5948
4.93985 18.4951
4.95152 18.591
4.96319 18.5924
4.97487 18.5061
4.98654 18.4547
4.99821 18.5302
5.00988 18.8353
5.02156 19.1737
5.03323 19.1031
5.0449 18.9022
5.05658 18.938
5.06825 19.0738
5.07992 19.1967
5.0916 19.5043
5.10327 19.9866
5.11494 21.0827
5.12662 25.2926
5.13829 65.9765
5.14996 230.64
5.16164 271.427
5.17331 120.817
5.18499 34.8096
5.19666 22.3865
5.20833 20.5692
5.22001 20.0131
5.23168 19.622
5.24336 19.575
5.25503 19.5368
5.2667 19.5658
5.27838 19.5478
5.29005 19.4545
5.30173 19.5384
5.3134 19.5901
5.32508 19.709
5.33675 19.903
5.34843 20.0633
5.3601 20.0689
5.37177 20.2621
5.38345 20.57
5.39512 21.049
5.4068 21.637
5.41847 22.3582
5.43015 23.3556
5.44182 25.1742
5.4535 29.033
5.46517 41.0782
5.47685 113.222
5.48852 480.8
5.5002 961.351
5.51188 852.213
5.52355 330.7
5.53523 81.198
5.5469 36.439
5.55858 27.4376
5.57025 24.1465
5.58193 22.5753
5.5936 21.5827
5.60528 21.0128
5.61696 20.6368
5.62863 20.24
5.64031 19.9802
5.65198 19.6935
5.66366 19.3682
5.67534 19.2137
5.68701 19.1671
5.69869 19.0071
5.71037 18.8381
5.72204 18.7284
5.73372 18.6434
5.74539 18.5249
5.75707 18.4611
5.76875 18.2444
5.78042 18.2107
5.7921 18.2789
5.80378 18.1855
5.81546 18.2054
5.82713 18.1225
5.83881 18.0434
5.85049 18.0186
5.86216 18.0897
5.87384 17.9923
5.88552 17.9979
5.8972 18.0317
5.90887 17.9663
5.92055 17.8729
5.93223 17.9217
5.94391 17.8778
5.95558 17.7845
5.96726 17.975
5.97894 18.027
5.99062 18.0767
6.00229 18.1524
6.01397 18.2986
6.02565 18.3481
6.03733 18.4911
6.04901 18.6885
6.06068 19.1336
6.07236 19.5774
6.08404 19.9358
6.09572 20.3354
6.1074 20.9871
6.11908 21.2565
6.13076 21.3231
6.14243 21.1214
6.15411 20.8479
6.16579 20.3322
6.17747 19.7508
6.18915 19.2535
6.20083 18.8259
6.21251 18.4412
6.22419 18.3328
6.23587 18.1949
6.24754 18.1776
6.25922 18.0914
6.2709 18.1786
6.28258 18.4471
6.29426 18.8282
6.30594 19.9929
6.31762 23.8905
6.3293 46.2626
6.34098 109.173
6.35266 132.318
6.36434 83.7811
6.37602 34.3448
6.3877 22.4179
6.39938 20.4213
6.41106 20.815
6.42274 25.8739
6.43442 62.2924
6.4461 162.913
6.45778 201.078
6.46946 127.758
6.48114 46.035
6.49282 22.9232
6.5045 19.3923
6.51618 18.4291
6.52787 17.9304
6.53955 17.7571
6.55123 17.5809
6.56291 17.3671
6.57459 17.2161
6.58627 17.0605
6.59795 17.1271
6.60963 17.1612
6.62131 17.1274
6.633 17.1716
6.64468 17.3328
6.65636 17.2857
6.66804 17.5417
6.67972 17.9689
6.6914 18.981
6.70309 22.2251
6.71477 35.1657
6.72645 72.0176
6.73813 104.816
6.74981 99.0321
6.7615 59.4885
6.77318 30.9021
6.78486 21.5555
6.79654 18.7012
6.80823 17.6862
6.81991 17.29
6.83159 17.0003
6.84327 16.8992
6.85496 16.731
6.86664 16.6932
6.87832 16.7202
6.89 16.5844
6.90169 16.6559
6.91337 16.7011
6.92505 16.7081
6.93674 16.6054
6.94842 16.6339
6.9601 16.73
6.97179 16.704
6.98347 16.6119
6.99515 16.881
7.00684 16.798
7.01852 16.8773
7.03021 17.0482
7.04189 17.1302
7.05357 17.1008
7.06526 17.1068
7.07694 17.304
7.08863 17.2524
7.10031 17.2599
7.112 17.2582
7.12368 17.1808
7.13536 16.9673
7.14705 17.1042
7.15873 17.027
7.17042 16.9066
7.1821 16.943
7.19379 16.9916
7.20547 16.8773
7.21716 17.0442
7.22884 17.1376
7.24053 17.3166
7.25221 18.012
7.2639 20.5333
7.27558 38.7904
7.28727 95.4186
7.29895 123.302
7.31064 85.0434
7.32233 34.5754
7.33401 20.0961
7.3457 17.7759
7.35738 17.325
7.36907 16.9533
7.38076 16.9158
7.39244 16.9072
7.40413 16.9876
7.41581 17.0944
7.4275 18.094
7.43919 20.4631
7.45087 21.2733
7.46256 19.4036
7.47425 17.5312
7.48593 16.9336
7.49762 17.0018
7.50931 16.872
7.521 16.8897
7.53268 16.8389
7.54437 16.8566
7.55606 16.9975
7.56774 16.9257
7.57943 17.1042
7.59112 17.1697
7.60281 17.1913
7.61449 17.2871
7.62618 17.3141
7.63787 17.4264
7.64956 17.5248
7.66125 17.5673
7.67293 17.6333
7.68462 17.5754
7.69631 17.7118
7.708 17.8782
7.71969 18.1687
7.73137 18.982
7.74306 20.7272
7.75475 27.6625
7.76644 69.0872
7.77813 168.282
7.78982 206.753
7.80151 134.021
7.8132 47.1984
7.82489 23.4789
7.83657 19.6064
7.84826 18.4741
7.85995 17.9808
7.87164 17.6617
7.88333 17.4805
7.89502 17.3903
7.90671 17.2398
7.9184 17.2005
7.93009 17.0825
7.94178 17.1266
7.95347 17.1262
7.96516 17.0075
7.97685 17.1323
7.98854 16.9584
8.00023 16.9455
8.01192 16.9219
8.02361 16.8602
8.0353 16.7986
8.04699 16.8694
8.05868 16.8802
8.07038 16.8618
8.08207 16.8556
8.09376 16.83
8.10545 16.8978
8.11714 16.9019
8.12883 16.8675
8.14052 16.8976
8.15221 17.0144
8.16391 17.0133
8.1756 17.0215
8.18729 16.9817
8.19898 16.9289
8.21067 16.9965
8.22236 16.9963
8.23406 17.013
8.24575 16.9631
8.25744 16.9542
8.26913 17.2159
8.28083 17.2458
8.29252 17.2863
8.30421 17.3037
8.3159 17.3587
8.3276 17.4529
8.33929 17.5524
8.35098 17.6721
8.36267 17.7543
8.37437 17.8883
8.38606 17.7953
8.39775 18.0777
8.40945 18.3114
8.42114 18.5022
8.43283 18.9266
8.44453 20.0188
8.45622 24.4263
8.46791 41.7626
8.47961 73.8403
8.4913 85.9385
8.503 65.6502
8.51469 34.3585
8.52639 24.4104
8.53808 31.8417
8.54977 47.7546
8.56147 51.1196
8.57316 37.3376
8.58486 23.6594
8.59655 20.5008
8.60825 20.0713
8.61994 20.1952
8.63164 20.66
8.64333 21.3931
8.65503 23.1601
8.66672 28.4464
8.67842 54.3037
8.69011 149.903
8.70181 279.348
8.7135 298.882
8.7252 186.539
8.7369 71.2814
8.74859 33.4511
8.76029 24.5459
8.77198 21.7332
8.78368 20.5602
8.79538 19.8405
8.80707 19.3707
8.81877 18.978
8.83047 18.6976
8.84216 18.633
8.85386 18.5177
8.86556 18.3908
8.87725 18.3219
8.88895 18.3817
8.90065 18.9925
8.91234 24.5926
8.92404 49.1842
8.93574 67.3209
8.94744 58.349
8.95913 31.813
8.97083 28.5044
8.98253 34.4386
8.99423 32.5253
9.00593 23.4262
9.01762 18.7021
9.02932 17.6777
9.04102 17.4296
9.05272 17.2191
9.06442 17.1316
9.07612 17.0535
9.08781 16.945
9.09951 16.8505
9.11121 16.8729
9.12291 16.8123
9.13461 16.8035
9.14631 16.7711
9.15801 16.9287
9.16971 16.7737
9.18141 16.5906
9.19311 16.6339
9.20481 16.6584
9.21651 16.7054
9.2282 16.608
9.2399 16.6848
9.2516 16.583
9.2633 16.5278
9.275 16.6087
9.28671 16.5548
9.29841 16.6728
9.31011 16.7933
9.32181 16.5892
9.33351 16.7339
9.34521 16.8872
9.35691 16.8863
9.36861 16.8533
9.38031 16.8313
9.39201 16.899
9.40371 16.8969
9.41541 16.9814
9.42712 16.8944
9.43882 16.9821
9.45052 17.1777
9.46222 17.3871
9.47392 17.9821
9.48562 18.8841
9.49733 21.8669
9.50903 33.1469
9.52073 65.3085
9.53243 110.654
9.54414 124.141
9.55584 95.7481
9.56754 48.8897
9.57924 25.8666
9.59095 20.1797
9.60265 18.2452
9.61435 17.3014
9.62606 16.8557
9.63776 16.5815
9.64946 16.3615
9.66117 16.2969
9.67287 16.0814
9.68457 16.0256
9.69628 16.0007
9.70798 15.9149
9.71968 15.8141
9.73139 15.8592
9.74309 15.8454
9.7548 15.751
9.7665 15.8102
9.7782 16.3936
9.78991 16.7733
9.80161 16.7379
9.81332 16.0771
9.82502 15.6682
9.83673 15.6181
9.84843 15.5046
9.86014 15.4656
9.87184 15.3698
9.88355 15.3719
9.89525 15.4083
9.90696 15.435
9.91867 15.4156
9.93037 15.5384
9.94208 15.5295
9.95378 15.5753
9.96549 15.7471
9.9772 15.9158
9.9889 16.0296
10.0006 16.2189
10.0123 17.311
10.024 22.3992
10.0357 36.0076
10.0474 45.7461
10.0591 41.9387
10.0708 27.7849
10.0826 20.5128
10.0943 23.2287
10.106 36.9284
10.1177 50.7855
10.1294 50.4893
10.1411 34.9558
10.1528 21.0532
10.1645 17.0835
10.1762 16.1046
10.1879 15.6719
10.1996 15.4736
10.2113 15.3814
10.2231 15.2859
10.2348 15.1223
10.2465 15.1045
10.2582 15.1772
10.2699 15.2386
10.2816 15.4033
10.2933 15.4868
10.305 17.1416
10.3167 21.6193
10.3284 25.2269
10.3401 23.9509
10.3518 18.7981
10.3636 15.7321
10.3753 15.0851
10.387 14.9108
10.3987 14.8815
10.4104 14.8064
10.4221 14.7266
10.4338 14.8545
10.4455 14.8536
10.4572 14.7571
10.469 14.8235
10.4807 14.8067
10.4924 14.8241
10.5041 14.7943
10.5158 14.6919
10.5275 14.6057
10.5392 14.6491
10.5509 14.7513
10.5626 14.7425
10.5744 14.8709
10.5861 14.7618
10.5978 14.7759
10.6095 14.8994
10.6212 14.7479
10.6329 14.7874
10.6446 14.8581
10.6563 14.9511
10.6681 14.8758
10.6798 14.9616
10.6915 14.8743
10.7032 14.8454
10.7149 14.8363
10.7266 14.8553
10.7383 14.8956
10.75 14.9569
10.7618 14.9529
10.7735 15.022
10.7852 15.0761
10.7969 15.081
10.8086 15.2535
10.8203 15.3268
10.832 15.2758
10.8438 15.2585
10.8555 15.2629
10.8672 15.3812
10.8789 15.4284
10.8906 15.5209
10.9023 15.4404
10.914 15.5766
10.9258 15.8868
10.9375 16.0371
10.9492 16.247
10.9609 16.8016
10.9726 17.9827
10.9843 22.2173
10.996 33.8131
11.0078 48.903
11.0195 55.6168
11.0312 49.3117
11.0429 33.9957
11.0546 22.6563
11.0663 18.4969
11.0781 17.1143
11.0898 16.4819
11.1015 16.2173
11.1132 16.1793
11.1249 16.0493
11.1366 15.9993
11.1484 16.0899
11.1601 15.8815
11.1718 15.9017
11.1835 16.043
11.1952 16.1038
11.207 16.0612
11.2187 16.3874
11.2304 18.2952
11.2421 21.889
11.2538 24.1094
11.2655 22.611
11.2773 18.8494
11.289 16.7967
11.3007 16.3082
11.3124 16.2759
11.3241 16.2742
11.3359 16.0838
11.3476 16.2537
11.3593 16.3111
11.371 16.3537
11.3827 16.5304
11.3945 16.5056
11.4062 16.5062
11.4179 16.5578
11.4296 16.7403
11.4413 16.8108
11.4531 16.996
11.4648 17.2572
11.4765 17.8232
11.4882 19.2352
11.4999 23.3237
11.5117 33.3211
11.5234 48.1084
11.5351 62.0286
11.5468 64.0946
11.5585 53.2807
11.5703 35.2661
11.582 22.5746
11.5937 19.3816
11.6054 18.5726
11.6171 18.4722
11.6289 18.8062
11.6406 19.5693
11.6523 21.9651
11.664 30.1834
11.6758 48.9001
11.6875 68.2486
11.6992 72.2512
11.7109 58.3824
11.7227 35.9705
11.7344 23.5843
11.7461 19.7098
11.7578 18.4006
11.7695 17.786
11.7813 17.5205
11.793 17.257
11.8047 17.2899
11.8164 17.1509
11.8282 16.9292
11.8399 16.8566
11.8516 16.7973
11.8633 16.6822
11.8751 16.7126
11.8868 16.535
11.8985 16.4434
11.9102 16.5353
11.922 16.5905
11.9337 16.5847
11.9454 16.4802
11.9571 16.4251
11.9689 16.4425
11.9806 16.3858
11.9923 16.4267
12.004 16.3866
12.0158 16.3744
12.0275 16.4036
12.0392 16.4177
12.051 16.4094
12.0627 16.4624
12.0744 16.4573
12.0861 16.4883
12.0979 16.5645
12.1096 16.6378
12.1213 16.5269
12.133 16.5652
12.1448 16.5273
12.1565 16.7178
12.1682 16.7249
12.18 16.7317
12.1917 16.7617
12.2034 16.9911
12.2151 17.012
12.2269 17.202
12.2386 17.3539
12.2503 17.4891
12.2621 17.7093
12.2738 18.2024
12.2855 19.6295
12.2972 25.1058
12.309 40.3493
12.3207 59.5532
12.3324 66.4177
12.3442 57.8642
12.3559 37.3621
12.3676 23.3188
12.3793 19.3367
12.3911 18.154
12.4028 17.7301
12.4145 17.4333
12.4263 17.2251
12.438 17.2007
12.4497 17.1365
12.4615 16.9427
12.4732 16.9976
12.4849 16.9449
12.4967 17.0471
12.5084 16.9123
12.5201 16.8947
12.5319 16.7161
12.5436 16.8205
12.5553 16.8752
12.5671 16.7697
12.5788 16.8335
12.5905 16.8374
12.6022 17.0432
12.614 17.4542
12.6257 19.4093
12.6374 25.0066
12.6492 31.3418
12.6609 32.931
12.6726 28.3951
12.6844 21.301
12.6961 18.8941
12.7078 19.5838
12.7196 20.5998
12.7313 20.6869
12.7431 19.803
12.7548 19.1297
12.7665 19.5176
12.7783 20.2642
12.79 20.5301
12.8017 19.8596
12.8135 18.6068
12.8252 17.7927
12.8369 17.3071
12.8487 17.166
12.8604 17.3399
12.8721 17.525
12.8839 18.2278
12.8956 20.0058
12.9073 24.7618
12.9191 32.8877
12.9308 39.7742
12.9426 40.6851
12.9543 34.4152
12.966 25.3825
12.9778 19.7672
12.9895 18.0103
13.0012 17.4338
13.013 17.0842
13.0247 16.9897
13.0365 16.734
13.0482 16.6901
13.0599 16.6064
13.0717 16.5058
13.0834 16.6306
13.0951 16.4766
13.1069 16.4505
13.1186 16.4722
13.1304 16.4979
13.1421 16.4679
13.1538 16.2924
13.1656 16.3735
13.1773 16.3343
13.1891 16.2355
13.2008 16.2671
13.2125 16.2993
13.2243 16.3246
13.236 16.1966
13.2478 16.1778
13.2595 16.3357
13.2712 16.3084
13.283 16.2328
13.2947 16.3085
13.3065 16.4246
13.3182 16.5236
13.3299 16.4145
13.3417 16.2906
13.3534 16.3646
13.3652 16.3091
13.3769 16.3739
13.3886 16.5615
13.4004 16.959
13.4121 18.3951
13.4239 19.6908
13.4356 19.9389
13.4474 19.0843
13.4591 17.9379
13.4708 18.6087
13.4826 21.1772
13.4943 23.6996
13.5061 24.3788
13.5178 22.7874
13.5296 19.8858
13.5413 18.0614
13.553 17.1911
13.5648 16.8044
13.5765 16.5779
13.5883 16.6565
13.6 16.5994
13.6118 16.3953
13.6235 16.4313
13.6353 16.3638
13.647 16.3948
13.6588 16.3762
13.6705 16.3418
13.6822 16.4839
13.694 16.4821
13.7057 16.476
13.7175 16.4746
13.7292 16.563
13.741 16.494
13.7527 16.4986
13.7645 16.5291
13.7762 16.5545
13.788 16.6728
13.7997 16.6781
13.8115 16.6595
13.8232 16.7679
13.8349 16.8393
13.8467 16.9602
13.8584 17.1789
13.8702 17.2652
13.8819 17.6768
13.8937 18.6638
13.9054 21.2138
13.9172 25.1609
13.9289 28.1538
13.9407 27.9896
13.9524 24.869
13.9642 20.9483
13.9759 18.8441
13.9877 18.2231
13.9994 18.0528
14.0112 18.3689
14.0229 19.1109
14.0347 21.8182
14.0464 27.0045
14.0582 33.2927
14.0699 36.743
14.0817 34.8818
14.0934 28.9737
14.1052 22.4427
14.1169 19.2466
14.1287 18.2454
14.1404 17.9019
14.1522 17.7241
14.1639 17.7159
14.1757 17.5338
14.1874 17.7535
14.1992 17.897
14.2109 18.7337
14.2227 20.2163
14.2344 21.0171
14.2462 20.6692
14.2579 19.4177
14.2697 18.1068
14.2815 17.7303
14.2932 17.5378
14.305 17.5173
14.3167 17.5758
14.3285 17.6387
14.3402 17.5151
14.352 17.5215
14.3637 17.399
14.3755 17.484
14.3872 17.5461
14.399 17.5015
14.4107 17.4225
14.4225 17.5562
14.4343 17.4571
14.446 17.679
14.4578 17.6475
14.4695 17.6056
14.4813 17.7513
14.493 17.767
14.5048 17.7823
14.5165 17.9649
14.5283 18.2237
14.5401 18.5823
14.5518 19.69
14.5636 22.099
14.5753 27.03
14.5871 34.8448
14.5988 42.2235
14.6106 45.0775
14.6224 41.5034
14.6341 33.2028
14.6459 25.0317
14.6576 20.6478
14.6694 19.0903
14.6811 18.363
14.6929 18.0276
14.7047 17.8092
14.7164 17.8599
14.7282 17.7363
14.7399 17.5329
14.7517 17.6101
14.7635 17.432
14.7752 17.542
14.787 17.4668
14.7987 17.5272
14.8105 17.5591
14.8223 17.6002
14.834 17.4569
14.8458 17.3561
14.8575 17.3997
14.8693 17.5192
14.8811 17.5846
14.8928 17.9684
14.9046 18.1901
14.9163 19.0274
14.9281 19.9249
14.9399 20.4908
14.9516 20.8757
14.9634 22.1426
14.9752 24.9041
14.9869 27.6413
14.9987 28.0439
15.0104 26.1043
15.0222 22.5106
15.034 19.6456
15.0457 18.3446
15.0575 17.8145
15.0693 17.4833
15.081 17.4245
15.0928 17.4635
15.1045 17.3873
15.1163 17.3648
15.1281 17.3529
15.1398 17.408
15.1516 17.2106
15.1634 17.5102
15.1751 17.2969
15.1869 17.2579
15.1987 17.2725
15.2104 17.0462
15.2222 17.1824
15.234 17.372
15.2457 17.2535
15.2575 17.536
15.2693 17.8926
15.281 19.1466
15.2928 20.2751
15.3046 20.4562
15.3163 20.0079
15.3281 19.0087
15.3399 17.9788
15.3516 17.4674
15.3634 17.3046
15.3752 17.2627
15.3869 17.3374
15.3987 17.0174
15.4105 17.1895
15.4222 17.3144
15.434 17.4438
15.4458 17.4926
15.4575 17.5053
15.4693 17.4539
15.4811 17.9015
15.4928 19.6196
15.5046 21.9004
15.5164 23.1569
15.5282 23.2899
15.5399 21.8918
15.5517 19.6368
15.5635 18.2612
15.5752 17.9963
15.587 18.6248
15.5988 19.6638
15.6105 20.4586
15.6223 20.7144
15.6341 20.165
15.6459 18.8209
15.6576 18.3477
15.6694 17.9936
15.6812 17.634
15.6929 17.5234
15.7047 18.0718
15.7165 17.7749
15.7283 17.5732
15.74 17.8298
15.7518 17.9182
15.7636 17.8752
15.7754 18.0293
15.7871 17.942
15.7989 17.7264
15.8107 17.9647
15.8224 17.9846
15.8342 17.9741
15.846 18.2918
15.8578 17.6094
15.8695 18.2583
15.8813 18.0306
15.8931 18.2479
15.9049 18.0508
15.9166 18.1092
15.9284 18.7588
15.9402 18.5308
15.952 19.1021
15.9637 20.1641
15.9755 21.0298
15.9873 20.758
15.9991 20.7634
16.0109 20.1662
16.0226 19.8916
16.0344 19.4633
16.0462 19.6631
16.058 20.3204
16.0697 22.4035
16.0815 25.631
16.0933 29.0047
16.1051 30.8261
16.1169 29.8814
16.1286 26.3545
16.1404 22.3904
16.1522 20.5305
16.164 19.6125
16.1757 19.2532
16.1875 19.044
16.1993 19.495
16.2111 19.4062
16.2229 19.7057
16.2346 20.1488
16.2464 20.7259
16.2582 20.3662
16.27 20.0398
16.2818 19.4191
16.2935 19.1345
16.3053 18.9551
16.3171 19.2274
16.3289 18.9265
16.3407 19.8557
16.3524 20.3639
16.3642 21.1187
16.376 21.1339
16.3878 20.6074
16.3996 19.673
16.4114 19.1128
16.4231 18.7624
16.4349 18.399
16.4467 18.6597
16.4585 19.0635
16.4703 18.8783
16.4821 18.673
16.4938 18.3877
16.5056 18.8865
16.5174 18.7112
16.5292 18.3083
16.541 20.4879
16.5528 24.1517
16.5645 28.5288
16.5763 30.5922
16.5881 30.604
16.5999 26.3609
16.6117 21.9568
16.6235 19.2851
16.6353 18.6427
16.647 18.9123
16.6588 17.5618
16.6706 17.8897
16.6824 17.2481
16.6942 17.0435
16.706 17.3607
16.7178 17.9142
16.7296 17.348
16.7413 17.7827
16.7531 17.0409
16.7649 18.7985