File: notebooks/example_data/xrd_phase_identification/unknown_xrd_2_wl=0.1824Angst.xy
1.2492e+00 1.2646e-01
1.2591e+00 1.1183e-01
1.2691e+00 9.6058e-02
1.2791e+00 9.0011e-02
1.2891e+00 9.9412e-02
1.2990e+00 1.0234e-01
1.3090e+00 1.0421e-01
1.3190e+00 1.0128e-01
1.3290e+00 9.5467e-02
1.3389e+00 9.5186e-02
1.3489e+00 1.1491e-01
1.3589e+00 1.0721e-01
1.3689e+00 1.1602e-01
1.3789e+00 1.1287e-01
1.3888e+00 1.0647e-01
1.3988e+00 9.4798e-02
1.4088e+00 9.5469e-02
1.4188e+00 1.0653e-01
1.4287e+00 1.0013e-01
1.4387e+00 1.0646e-01
1.4487e+00 1.0827e-01
1.4587e+00 1.0678e-01
1.4687e+00 1.1930e-01
1.4786e+00 8.4971e-02
1.4886e+00 9.5876e-02
1.4986e+00 1.0909e-01
1.5086e+00 1.1455e-01
1.5185e+00 1.0295e-01
1.5285e+00 9.6189e-02
1.5385e+00 1.0222e-01
1.5485e+00 1.0148e-01
1.5584e+00 1.0133e-01
1.5684e+00 1.0627e-01
1.5784e+00 1.0826e-01
1.5884e+00 1.0733e-01
1.5984e+00 1.1236e-01
1.6083e+00 1.0666e-01
1.6183e+00 1.0432e-01
1.6283e+00 1.0506e-01
1.6383e+00 1.0664e-01
1.6482e+00 9.9886e-02
1.6582e+00 1.0806e-01
1.6682e+00 1.0516e-01
1.6782e+00 1.1104e-01
1.6882e+00 9.9633e-02
1.6981e+00 1.0218e-01
1.7081e+00 1.1274e-01
1.7181e+00 1.1880e-01
1.7281e+00 1.0273e-01
1.7380e+00 1.0683e-01
1.7480e+00 1.0205e-01
1.7580e+00 1.0565e-01
1.7680e+00 1.2557e-01
1.7780e+00 1.1758e-01
1.7879e+00 1.1112e-01
1.7979e+00 1.0403e-01
1.8079e+00 1.0658e-01
1.8179e+00 1.2605e-01
1.8278e+00 1.1713e-01
1.8378e+00 1.1762e-01
1.8478e+00 1.0663e-01
1.8578e+00 1.0630e-01
1.8677e+00 1.2235e-01
1.8777e+00 1.2365e-01
1.8877e+00 1.1308e-01
1.8977e+00 1.1186e-01
1.9077e+00 1.0591e-01
1.9176e+00 1.0907e-01
1.9276e+00 1.1645e-01
1.9376e+00 1.2199e-01
1.9476e+00 1.1972e-01
1.9575e+00 1.2366e-01
1.9675e+00 1.2901e-01
1.9775e+00 1.3270e-01
1.9875e+00 1.1444e-01
1.9975e+00 1.1438e-01
2.0074e+00 1.2524e-01
2.0174e+00 1.1816e-01
2.0274e+00 1.2805e-01
2.0374e+00 1.2766e-01
2.0474e+00 1.2099e-01
2.0573e+00 1.2209e-01
2.0673e+00 1.1172e-01
2.0773e+00 1.1458e-01
2.0873e+00 1.1412e-01
2.0972e+00 1.0504e-01
2.1072e+00 1.0768e-01
2.1172e+00 1.1053e-01
2.1272e+00 1.2188e-01
2.1372e+00 1.1403e-01
2.1471e+00 1.3040e-01
2.1571e+00 1.2769e-01
2.1671e+00 1.2947e-01
2.1771e+00 1.2241e-01
2.1870e+00 1.1860e-01
2.1970e+00 1.1825e-01
2.2070e+00 1.1228e-01
2.2170e+00 1.2192e-01
2.2270e+00 1.2607e-01
2.2369e+00 1.0927e-01
2.2469e+00 1.2659e-01
2.2569e+00 1.2018e-01
2.2669e+00 1.1888e-01
2.2768e+00 1.2190e-01
2.2868e+00 1.1572e-01
2.2968e+00 1.2312e-01
2.3068e+00 1.0888e-01
2.3168e+00 1.1331e-01
2.3267e+00 1.1457e-01
2.3367e+00 1.2439e-01
2.3467e+00 1.3086e-01
2.3567e+00 1.1565e-01
2.3667e+00 1.1740e-01
2.3766e+00 1.2198e-01
2.3866e+00 1.2232e-01
2.3966e+00 1.2879e-01
2.4066e+00 1.2476e-01
2.4165e+00 1.2024e-01
2.4265e+00 1.2787e-01
2.4365e+00 1.2613e-01
2.4465e+00 1.1580e-01
2.4565e+00 1.1974e-01
2.4664e+00 1.2145e-01
2.4764e+00 1.2024e-01
2.4864e+00 1.2541e-01
2.4964e+00 1.1372e-01
2.5064e+00 1.2040e-01
2.5163e+00 1.3096e-01
2.5263e+00 1.3296e-01
2.5363e+00 1.3030e-01
2.5463e+00 1.2310e-01
2.5563e+00 1.2860e-01
2.5662e+00 1.3326e-01
2.5762e+00 1.4394e-01
2.5862e+00 1.2801e-01
2.5962e+00 1.2827e-01
2.6061e+00 1.1977e-01
2.6161e+00 1.2768e-01
2.6261e+00 1.3179e-01
2.6361e+00 1.2633e-01
2.6461e+00 1.2016e-01
2.6560e+00 1.2103e-01
2.6660e+00 1.2461e-01
2.6760e+00 1.2422e-01
2.6860e+00 1.2900e-01
2.6960e+00 1.2556e-01
2.7059e+00 1.2757e-01
2.7159e+00 1.3187e-01
2.7259e+00 1.3827e-01
2.7359e+00 1.5604e-01
2.7459e+00 1.6907e-01
2.7558e+00 1.7765e-01
2.7658e+00 1.4335e-01
2.7758e+00 1.4536e-01
2.7858e+00 1.5562e-01
2.7957e+00 1.8455e-01
2.8057e+00 2.7187e-01
2.8157e+00 6.0006e-01
2.8257e+00 1.7048e+00
2.8357e+00 3.1659e+00
2.8456e+00 2.3266e+00
2.8556e+00 8.1203e-01
2.8656e+00 3.0623e-01
2.8756e+00 1.9313e-01
2.8856e+00 1.5492e-01
2.8955e+00 1.3787e-01
2.9055e+00 1.3368e-01
2.9155e+00 1.3465e-01
2.9255e+00 1.2535e-01
2.9355e+00 1.2138e-01
2.9454e+00 1.2965e-01
2.9554e+00 1.3039e-01
2.9654e+00 1.2921e-01
2.9754e+00 1.3915e-01
2.9854e+00 1.3743e-01
2.9953e+00 1.5368e-01
3.0053e+00 1.6682e-01
3.0153e+00 1.8093e-01
3.0253e+00 1.6838e-01
3.0353e+00 1.5378e-01
3.0452e+00 1.4731e-01
3.0552e+00 1.3720e-01
3.0652e+00 1.2945e-01
3.0752e+00 1.2695e-01
3.0852e+00 1.2626e-01
3.0951e+00 1.3673e-01
3.1051e+00 1.4094e-01
3.1151e+00 1.3696e-01
3.1251e+00 1.2929e-01
3.1351e+00 1.3736e-01
3.1450e+00 1.4462e-01
3.1550e+00 1.3885e-01
3.1650e+00 1.4500e-01
3.1750e+00 1.6140e-01
3.1850e+00 1.8764e-01
3.1949e+00 1.9931e-01
3.2049e+00 1.9233e-01
3.2149e+00 1.8769e-01
3.2249e+00 1.7606e-01
3.2349e+00 1.6718e-01
3.2448e+00 1.5687e-01
3.2548e+00 1.5021e-01
3.2648e+00 1.3510e-01
3.2748e+00 1.3869e-01
3.2848e+00 1.3987e-01
3.2947e+00 1.4919e-01
3.3047e+00 1.3945e-01
3.3147e+00 1.4307e-01
3.3247e+00 1.4049e-01
3.3347e+00 1.4203e-01
3.3446e+00 1.2531e-01
3.3546e+00 1.3129e-01
3.3646e+00 1.4008e-01
3.3746e+00 1.3326e-01
3.3846e+00 1.4265e-01
3.3946e+00 1.4628e-01
3.4045e+00 1.6094e-01
3.4145e+00 1.7254e-01
3.4245e+00 1.8211e-01
3.4345e+00 1.8445e-01
3.4445e+00 1.9389e-01
3.4544e+00 2.3061e-01
3.4644e+00 2.6630e-01
3.4744e+00 2.5844e-01
3.4844e+00 2.1886e-01
3.4944e+00 1.8912e-01
3.5043e+00 2.0723e-01
3.5143e+00 2.9002e-01
3.5243e+00 3.9289e-01
3.5343e+00 3.9942e-01
3.5443e+00 3.8316e-01
3.5542e+00 3.5764e-01
3.5642e+00 3.0493e-01
3.5742e+00 2.4747e-01
3.5842e+00 1.8706e-01
3.5942e+00 1.6103e-01
3.6042e+00 1.5132e-01
3.6141e+00 1.4884e-01
3.6241e+00 1.4814e-01
3.6341e+00 1.3518e-01
3.6441e+00 1.3802e-01
3.6541e+00 1.3699e-01
3.6640e+00 1.4485e-01
3.6740e+00 1.3629e-01
3.6840e+00 1.3755e-01
3.6940e+00 1.4815e-01
3.7040e+00 1.4756e-01
3.7140e+00 1.5299e-01
3.7239e+00 1.5596e-01
3.7339e+00 1.6427e-01
3.7439e+00 1.5476e-01
3.7539e+00 1.5231e-01
3.7639e+00 1.5390e-01
3.7738e+00 1.6727e-01
3.7838e+00 1.7224e-01
3.7938e+00 1.7437e-01
3.8038e+00 1.7636e-01
3.8138e+00 2.0258e-01
3.8238e+00 2.5463e-01
3.8337e+00 3.8873e-01
3.8437e+00 9.0502e-01
3.8537e+00 2.8858e+00
3.8637e+00 7.7121e+00
3.8737e+00 1.0950e+01
3.8836e+00 6.3868e+00
3.8936e+00 1.9619e+00
3.9036e+00 6.2861e-01
3.9136e+00 3.2948e-01
3.9236e+00 2.3500e-01
3.9336e+00 1.8844e-01
3.9435e+00 1.7479e-01
3.9535e+00 1.7257e-01
3.9635e+00 1.5579e-01
3.9735e+00 1.6235e-01
3.9835e+00 1.6307e-01
3.9934e+00 1.5242e-01
4.0034e+00 1.5580e-01
4.0134e+00 1.5809e-01
4.0234e+00 1.6263e-01
4.0334e+00 1.8000e-01
4.0434e+00 2.0543e-01
4.0533e+00 2.1875e-01
4.0633e+00 2.2706e-01
4.0733e+00 2.1562e-01
4.0833e+00 2.1326e-01
4.0933e+00 2.2843e-01
4.1033e+00 2.9958e-01
4.1132e+00 4.9422e-01
4.1232e+00 1.1433e+00
4.1332e+00 3.0564e+00
4.1432e+00 6.6679e+00
4.1532e+00 7.7889e+00
4.1632e+00 3.8485e+00
4.1731e+00 1.1571e+00
4.1831e+00 4.3288e-01
4.1931e+00 2.6607e-01
4.2031e+00 2.0229e-01
4.2131e+00 1.8849e-01
4.2231e+00 1.7492e-01
4.2330e+00 1.6748e-01
4.2430e+00 1.7384e-01
4.2530e+00 1.6860e-01
4.2630e+00 1.7256e-01
4.2730e+00 1.8685e-01
4.2830e+00 1.7586e-01
4.2929e+00 1.6703e-01
4.3029e+00 1.7136e-01
4.3129e+00 1.7115e-01
4.3229e+00 1.5853e-01
4.3329e+00 1.5357e-01
4.3429e+00 1.4989e-01
4.3528e+00 1.3973e-01
4.3628e+00 1.4804e-01
4.3728e+00 1.4907e-01
4.3828e+00 1.5070e-01
4.3928e+00 1.4104e-01
4.4028e+00 1.4875e-01
4.4127e+00 1.4501e-01
4.4227e+00 1.4251e-01
4.4327e+00 1.4713e-01
4.4427e+00 1.4938e-01
4.4527e+00 1.5571e-01
4.4627e+00 1.6104e-01
4.4726e+00 1.5859e-01
4.4826e+00 1.6787e-01
4.4926e+00 1.7684e-01
4.5026e+00 1.8439e-01
4.5126e+00 1.7691e-01
4.5226e+00 1.7300e-01
4.5325e+00 1.7059e-01
4.5425e+00 2.0331e-01
4.5525e+00 2.6881e-01
4.5625e+00 3.3590e-01
4.5725e+00 2.9277e-01
4.5825e+00 2.1100e-01
4.5925e+00 1.9113e-01
4.6024e+00 1.8504e-01
4.6124e+00 1.8238e-01
4.6224e+00 1.7382e-01
4.6324e+00 1.7098e-01
4.6424e+00 1.7077e-01
4.6524e+00 1.6554e-01
4.6623e+00 1.6007e-01
4.6723e+00 1.6452e-01
4.6823e+00 1.7085e-01
4.6923e+00 1.8295e-01
4.7023e+00 2.3017e-01
4.7123e+00 4.3740e-01
4.7223e+00 1.0956e+00
4.7322e+00 2.1635e+00
4.7422e+00 2.1014e+00
4.7522e+00 9.5707e-01
4.7622e+00 3.6518e-01
4.7722e+00 2.2352e-01
4.7822e+00 1.7939e-01
4.7922e+00 1.6406e-01
4.8021e+00 1.6097e-01
4.8121e+00 1.6306e-01
4.8221e+00 1.6843e-01
4.8321e+00 1.8370e-01
4.8421e+00 1.8606e-01
4.8521e+00 1.7738e-01
4.8620e+00 1.7443e-01
4.8720e+00 1.7318e-01
4.8820e+00 1.6846e-01
4.8920e+00 1.5848e-01
4.9020e+00 1.5821e-01
4.9120e+00 1.5133e-01
4.9220e+00 1.5360e-01
4.9319e+00 1.5033e-01
4.9419e+00 1.4379e-01
4.9519e+00 1.4319e-01
4.9619e+00 1.5113e-01
4.9719e+00 1.6952e-01
4.9819e+00 1.9493e-01
4.9919e+00 2.1368e-01
5.0018e+00 1.9902e-01
5.0118e+00 2.2727e-01
5.0218e+00 3.1534e-01
5.0318e+00 3.5278e-01
5.0418e+00 2.5102e-01
5.0518e+00 1.8009e-01
5.0618e+00 1.5277e-01
5.0717e+00 1.4641e-01
5.0817e+00 1.5196e-01
5.0917e+00 1.5897e-01
5.1017e+00 1.6442e-01
5.1117e+00 1.6068e-01
5.1217e+00 1.5620e-01
5.1317e+00 1.5274e-01
5.1417e+00 1.4921e-01
5.1516e+00 1.4976e-01
5.1616e+00 1.4581e-01
5.1716e+00 1.4702e-01
5.1816e+00 1.4474e-01
5.1916e+00 1.4494e-01
5.2016e+00 1.4559e-01
5.2116e+00 1.4769e-01
5.2215e+00 1.5293e-01
5.2315e+00 1.5254e-01
5.2415e+00 1.5955e-01
5.2515e+00 1.5956e-01
5.2615e+00 1.5559e-01
5.2715e+00 1.5876e-01
5.2815e+00 1.5754e-01
5.2915e+00 1.5469e-01
5.3014e+00 1.5588e-01
5.3114e+00 1.5102e-01
5.3214e+00 1.4756e-01
5.3314e+00 1.4819e-01
5.3414e+00 1.4734e-01
5.3514e+00 1.4764e-01
5.3614e+00 1.3811e-01
5.3714e+00 1.4189e-01
5.3813e+00 1.3945e-01
5.3913e+00 1.4233e-01
5.4013e+00 1.3789e-01
5.4113e+00 1.4454e-01
5.4213e+00 1.3848e-01
5.4313e+00 1.3728e-01
5.4413e+00 1.4421e-01
5.4513e+00 1.4650e-01
5.4612e+00 1.4643e-01
5.4712e+00 1.4767e-01
5.4812e+00 1.4657e-01
5.4912e+00 1.4593e-01
5.5012e+00 1.4970e-01
5.5112e+00 1.5016e-01
5.5212e+00 1.4567e-01
5.5312e+00 1.4122e-01
5.5411e+00 1.4580e-01
5.5511e+00 1.4672e-01
5.5611e+00 1.4260e-01
5.5711e+00 1.4717e-01
5.5811e+00 1.5888e-01
5.5911e+00 1.5506e-01
5.6011e+00 1.6149e-01
5.6111e+00 1.7409e-01
5.6210e+00 1.8235e-01
5.6310e+00 2.0616e-01
5.6410e+00 2.9437e-01
5.6510e+00 6.1683e-01
5.6610e+00 1.7347e+00
5.6710e+00 3.8395e+00
5.6810e+00 4.6027e+00
5.6910e+00 2.5476e+00
5.7010e+00 8.8611e-01
5.7109e+00 3.5956e-01
5.7209e+00 2.2586e-01
5.7309e+00 1.8764e-01
5.7409e+00 1.6774e-01
5.7509e+00 1.7290e-01
5.7609e+00 1.7686e-01
5.7709e+00 1.7452e-01
5.7809e+00 1.7340e-01
5.7909e+00 1.6706e-01
5.8008e+00 1.6597e-01
5.8108e+00 1.6156e-01
5.8208e+00 1.5214e-01
5.8308e+00 1.4620e-01
5.8408e+00 1.5198e-01
5.8508e+00 1.4838e-01
5.8608e+00 1.4658e-01
5.8708e+00 1.4827e-01
5.8808e+00 1.5195e-01
5.8908e+00 1.4564e-01
5.9007e+00 1.4759e-01
5.9107e+00 1.4599e-01
5.9207e+00 1.4718e-01
5.9307e+00 1.5817e-01
5.9407e+00 1.5579e-01
5.9507e+00 1.5729e-01
5.9607e+00 1.5289e-01
5.9707e+00 1.5337e-01
5.9807e+00 1.5040e-01
5.9907e+00 1.5039e-01
6.0006e+00 1.5693e-01
6.0106e+00 1.5701e-01
6.0206e+00 1.6323e-01
6.0306e+00 1.6467e-01
6.0406e+00 1.6405e-01
6.0506e+00 1.6359e-01
6.0606e+00 1.6436e-01
6.0706e+00 1.5912e-01
6.0806e+00 1.6373e-01
6.0906e+00 1.8124e-01
6.1005e+00 2.0879e-01
6.1105e+00 2.3652e-01
6.1205e+00 2.5744e-01
6.1305e+00 3.2108e-01
6.1405e+00 5.7478e-01
6.1505e+00 1.5462e+00
6.1605e+00 3.8355e+00
6.1705e+00 5.8016e+00
6.1805e+00 4.1488e+00
6.1905e+00 1.6461e+00
6.2005e+00 5.7370e-01
6.2104e+00 2.9441e-01
6.2204e+00 2.1202e-01
6.2304e+00 1.8323e-01
6.2404e+00 1.6899e-01
6.2504e+00 1.5395e-01
6.2604e+00 1.5456e-01
6.2704e+00 1.5893e-01
6.2804e+00 1.5900e-01
6.2904e+00 1.5483e-01
6.3004e+00 1.6152e-01
6.3104e+00 1.5582e-01
6.3203e+00 1.5932e-01
6.3303e+00 1.6047e-01
6.3403e+00 1.5956e-01
6.3503e+00 1.5892e-01
6.3603e+00 1.5977e-01
6.3703e+00 1.7878e-01
6.3803e+00 2.0845e-01
6.3903e+00 2.1446e-01
6.4003e+00 2.0017e-01
6.4103e+00 1.7564e-01
6.4203e+00 1.6125e-01
6.4303e+00 1.5758e-01
6.4403e+00 1.6853e-01
6.4502e+00 1.6785e-01
6.4602e+00 1.9568e-01
6.4702e+00 2.4453e-01
6.4802e+00 2.9738e-01
6.4902e+00 2.9991e-01
6.5002e+00 2.8677e-01
6.5102e+00 3.8948e-01
6.5202e+00 6.4367e-01
6.5302e+00 9.8909e-01
6.5402e+00 1.2889e+00
6.5502e+00 1.0619e+00
6.5602e+00 5.4658e-01
6.5702e+00 2.7778e-01
6.5801e+00 1.9715e-01
6.5901e+00 1.7708e-01
6.6001e+00 1.6223e-01
6.6101e+00 1.5843e-01
6.6201e+00 1.5744e-01
6.6301e+00 1.5441e-01
6.6401e+00 1.4980e-01
6.6501e+00 1.4952e-01
6.6601e+00 1.4472e-01
6.6701e+00 1.4338e-01
6.6801e+00 1.4345e-01
6.6901e+00 1.4489e-01
6.7001e+00 1.4439e-01
6.7101e+00 1.4492e-01
6.7201e+00 1.5001e-01
6.7300e+00 1.5731e-01
6.7400e+00 1.5755e-01
6.7500e+00 1.5032e-01
6.7600e+00 1.5583e-01
6.7700e+00 1.5621e-01
6.7800e+00 1.5506e-01
6.7900e+00 1.5791e-01
6.8000e+00 1.5624e-01
6.8100e+00 1.5231e-01
6.8200e+00 1.5847e-01
6.8300e+00 1.5575e-01
6.8400e+00 1.5737e-01
6.8500e+00 1.6567e-01
6.8600e+00 1.6399e-01
6.8700e+00 1.6685e-01
6.8800e+00 1.6175e-01
6.8899e+00 1.5799e-01
6.8999e+00 1.5986e-01
6.9099e+00 1.5798e-01
6.9199e+00 1.5427e-01
6.9299e+00 1.5361e-01
6.9399e+00 1.5931e-01
6.9499e+00 1.6361e-01
6.9599e+00 1.6730e-01
6.9699e+00 1.6949e-01
6.9799e+00 1.7897e-01
6.9899e+00 2.0843e-01
6.9999e+00 3.1089e-01
7.0099e+00 6.7817e-01
7.0199e+00 1.8121e+00
7.0299e+00 3.6808e+00
7.0399e+00 4.1112e+00
7.0499e+00 2.3838e+00
7.0599e+00 1.0025e+00
7.0699e+00 4.7635e-01
7.0799e+00 2.8450e-01
7.0898e+00 2.1342e-01
7.0998e+00 1.8693e-01
7.1098e+00 1.8012e-01
7.1198e+00 1.7698e-01
7.1298e+00 1.8442e-01
7.1398e+00 1.9854e-01
7.1498e+00 2.4294e-01
7.1598e+00 3.8051e-01
7.1698e+00 8.7709e-01
7.1798e+00 2.1836e+00
7.1898e+00 3.7271e+00
7.1998e+00 3.2610e+00
7.2098e+00 1.5559e+00
7.2198e+00 5.8376e-01
7.2298e+00 2.7830e-01
7.2398e+00 2.1139e-01
7.2498e+00 1.8580e-01
7.2598e+00 1.6897e-01
7.2698e+00 1.6881e-01
7.2798e+00 1.6881e-01
7.2898e+00 1.6633e-01
7.2998e+00 1.6548e-01
7.3098e+00 1.6302e-01
7.3198e+00 1.6067e-01
7.3298e+00 1.5807e-01
7.3398e+00 1.5126e-01
7.3498e+00 1.5628e-01
7.3597e+00 1.5637e-01
7.3697e+00 1.6110e-01
7.3797e+00 1.7699e-01
7.3897e+00 1.8338e-01
7.3997e+00 1.8593e-01
7.4097e+00 1.7076e-01
7.4197e+00 1.5655e-01
7.4297e+00 1.4505e-01
7.4397e+00 1.4451e-01
7.4497e+00 1.4427e-01
7.4597e+00 1.4251e-01
7.4697e+00 1.3894e-01
7.4797e+00 1.3508e-01
7.4897e+00 1.3520e-01
7.4997e+00 1.3418e-01
7.5097e+00 1.4075e-01
7.5197e+00 1.3939e-01
7.5297e+00 1.3770e-01
7.5397e+00 1.4296e-01
7.5497e+00 1.3918e-01
7.5597e+00 1.4738e-01
7.5697e+00 1.4238e-01
7.5797e+00 1.4457e-01
7.5897e+00 1.4176e-01
7.5997e+00 1.3989e-01
7.6097e+00 1.3915e-01
7.6197e+00 1.5124e-01
7.6297e+00 1.4218e-01
7.6397e+00 1.3605e-01
7.6497e+00 1.3652e-01
7.6597e+00 1.4232e-01
7.6697e+00 1.4739e-01
7.6797e+00 1.4800e-01
7.6897e+00 1.3855e-01
7.6997e+00 1.4077e-01
7.7097e+00 1.5445e-01
7.7197e+00 1.7284e-01
7.7297e+00 2.3991e-01
7.7397e+00 3.9574e-01
7.7497e+00 5.4365e-01
7.7597e+00 4.6146e-01
7.7697e+00 2.8932e-01
7.7797e+00 1.9959e-01
7.7897e+00 1.7481e-01
7.7997e+00 1.6387e-01
7.8097e+00 1.5507e-01
7.8197e+00 1.4630e-01
7.8297e+00 1.5600e-01
7.8397e+00 1.4615e-01
7.8497e+00 1.5466e-01
7.8597e+00 1.5382e-01
7.8697e+00 1.5436e-01
7.8797e+00 1.6239e-01
7.8897e+00 1.6645e-01
7.8997e+00 1.5907e-01
7.9097e+00 1.5821e-01
7.9197e+00 1.5657e-01
7.9297e+00 1.5963e-01
7.9397e+00 1.7973e-01
7.9497e+00 2.5295e-01
7.9597e+00 4.7862e-01
7.9697e+00 1.0145e+00
7.9797e+00 1.5218e+00
7.9897e+00 1.2713e+00
7.9997e+00 7.5213e-01
8.0097e+00 5.0682e-01
8.0197e+00 3.7120e-01
8.0297e+00 2.3891e-01
8.0397e+00 1.7695e-01
8.0497e+00 1.5425e-01
8.0597e+00 1.5422e-01
8.0697e+00 1.4683e-01
8.0797e+00 1.4577e-01
8.0897e+00 1.4633e-01
8.0997e+00 1.4827e-01
8.1097e+00 1.4884e-01
8.1197e+00 1.5141e-01
8.1297e+00 1.5301e-01
8.1397e+00 1.4857e-01
8.1497e+00 1.4932e-01
8.1597e+00 1.5332e-01
8.1697e+00 1.6298e-01
8.1797e+00 1.8658e-01
8.1897e+00 1.8130e-01
8.1997e+00 1.6478e-01
8.2097e+00 1.5354e-01
8.2197e+00 1.4823e-01
8.2297e+00 1.4295e-01
8.2397e+00 1.4625e-01
8.2497e+00 1.5757e-01
8.2597e+00 1.6587e-01
8.2697e+00 1.8745e-01
8.2797e+00 2.6904e-01
8.2897e+00 4.9075e-01
8.2997e+00 8.7435e-01
8.3097e+00 1.0413e+00
8.3197e+00 7.0707e-01
8.3297e+00 3.5247e-01
8.3397e+00 2.1059e-01
8.3497e+00 1.6747e-01
8.3597e+00 1.5599e-01
8.3697e+00 1.5123e-01
8.3798e+00 1.4924e-01
8.3898e+00 1.4278e-01
8.3998e+00 1.4424e-01
8.4098e+00 1.4524e-01
8.4198e+00 1.4541e-01
8.4298e+00 1.4012e-01
8.4398e+00 1.4405e-01
8.4498e+00 1.4390e-01
8.4598e+00 1.4422e-01
8.4698e+00 1.4720e-01
8.4798e+00 1.5801e-01
8.4898e+00 1.6881e-01
8.4998e+00 2.1590e-01
8.5098e+00 3.3713e-01
8.5198e+00 4.7209e-01
8.5298e+00 4.2564e-01
8.5398e+00 2.8155e-01
8.5498e+00 1.9094e-01
8.5598e+00 1.6050e-01
8.5698e+00 1.4683e-01
8.5798e+00 1.5012e-01
8.5898e+00 1.5710e-01
8.5998e+00 2.0004e-01
8.6098e+00 2.5379e-01
8.6198e+00 2.5880e-01
8.6298e+00 2.1708e-01
8.6399e+00 1.7901e-01
8.6499e+00 1.6226e-01
8.6599e+00 1.5492e-01
8.6699e+00 1.5658e-01
8.6799e+00 1.5871e-01
8.6899e+00 1.4808e-01
8.6999e+00 1.4638e-01
8.7099e+00 1.5107e-01
8.7199e+00 1.5293e-01
8.7299e+00 1.5740e-01
8.7399e+00 1.5173e-01
8.7499e+00 1.7333e-01
8.7599e+00 2.2898e-01
8.7699e+00 3.6594e-01
8.7799e+00 5.8942e-01
8.7899e+00 7.9450e-01
8.7999e+00 7.4230e-01
8.8099e+00 4.6263e-01
8.8200e+00 2.6557e-01
8.8300e+00 1.8244e-01
8.8400e+00 1.6281e-01
8.8500e+00 1.5711e-01
8.8600e+00 1.5752e-01
8.8700e+00 1.4878e-01
8.8800e+00 1.4749e-01
8.8900e+00 1.5281e-01
8.9000e+00 1.5518e-01
8.9100e+00 1.5864e-01
8.9200e+00 1.5504e-01
8.9300e+00 1.5477e-01
8.9400e+00 1.5255e-01
8.9500e+00 1.6176e-01
8.9600e+00 1.7117e-01
8.9700e+00 2.2966e-01
8.9801e+00 3.7491e-01
8.9901e+00 6.6808e-01
9.0001e+00 8.5379e-01
9.0101e+00 6.5228e-01
9.0201e+00 3.5861e-01
9.0301e+00 2.1910e-01
9.0401e+00 1.7380e-01
9.0501e+00 1.5979e-01
9.0601e+00 1.5496e-01
9.0701e+00 1.5544e-01
9.0801e+00 1.5766e-01
9.0901e+00 1.5844e-01
9.1001e+00 1.5091e-01
9.1102e+00 1.5818e-01
9.1202e+00 1.7422e-01
9.1302e+00 2.0084e-01
9.1402e+00 2.8739e-01
9.1502e+00 5.1903e-01
9.1602e+00 9.5987e-01
9.1702e+00 1.2247e+00
9.1802e+00 9.0423e-01
9.1902e+00 4.6459e-01
9.2002e+00 2.5505e-01
9.2102e+00 1.8980e-01
9.2202e+00 1.7122e-01
9.2303e+00 1.5480e-01
9.2403e+00 1.5718e-01
9.2503e+00 1.5822e-01
9.2603e+00 1.5898e-01
9.2703e+00 1.5655e-01
9.2803e+00 1.5161e-01
9.2903e+00 1.5811e-01
9.3003e+00 1.6034e-01
9.3103e+00 1.5839e-01
9.3203e+00 1.6262e-01
9.3303e+00 1.6607e-01
9.3404e+00 1.7230e-01
9.3504e+00 1.7188e-01
9.3604e+00 1.6205e-01
9.3704e+00 1.5548e-01
9.3804e+00 1.5160e-01
9.3904e+00 1.4718e-01
9.4004e+00 1.5010e-01
9.4104e+00 1.5121e-01
9.4204e+00 1.5683e-01
9.4304e+00 1.6439e-01
9.4405e+00 1.8164e-01
9.4505e+00 2.3208e-01
9.4605e+00 3.9646e-01
9.4705e+00 7.6422e-01
9.4805e+00 1.1407e+00
9.4905e+00 9.9245e-01
9.5005e+00 5.6633e-01
9.5105e+00 2.9867e-01
9.5205e+00 2.0555e-01
9.5306e+00 1.7891e-01
9.5406e+00 1.7074e-01
9.5506e+00 1.7736e-01
9.5606e+00 1.8164e-01
9.5706e+00 1.9906e-01
9.5806e+00 2.0632e-01
9.5906e+00 2.1369e-01
9.6006e+00 2.0275e-01
9.6106e+00 1.8798e-01
9.6207e+00 1.7491e-01
9.6307e+00 1.5768e-01
9.6407e+00 1.6632e-01
9.6507e+00 1.6284e-01
9.6607e+00 1.6223e-01
9.6707e+00 1.7116e-01
9.6807e+00 1.8144e-01
9.6907e+00 1.8621e-01
9.7008e+00 2.2425e-01
9.7108e+00 2.5421e-01
9.7208e+00 2.4787e-01
9.7308e+00 2.2082e-01
9.7408e+00 1.8580e-01
9.7508e+00 1.7533e-01
9.7608e+00 1.6911e-01
9.7708e+00 1.7205e-01
9.7809e+00 1.6106e-01
9.7909e+00 1.6433e-01
9.8009e+00 1.5497e-01
9.8109e+00 1.6208e-01
9.8209e+00 1.6337e-01
9.8309e+00 1.6629e-01
9.8409e+00 1.6568e-01
9.8509e+00 1.6521e-01
9.8610e+00 1.6786e-01
9.8710e+00 1.9015e-01
9.8810e+00 2.3489e-01
9.8910e+00 4.0977e-01
9.9010e+00 7.6679e-01
9.9110e+00 1.1196e+00
9.9210e+00 1.0020e+00
9.9311e+00 6.0322e-01
9.9411e+00 3.1924e-01
9.9511e+00 2.0856e-01
9.9611e+00 1.7816e-01
9.9711e+00 1.7901e-01
9.9811e+00 1.7905e-01
9.9911e+00 1.7431e-01
1.0001e+01 1.7727e-01
1.0011e+01 1.7034e-01
1.0021e+01 1.9456e-01
1.0031e+01 2.1807e-01
1.0041e+01 2.7556e-01
1.0051e+01 3.2897e-01
1.0061e+01 4.1537e-01
1.0071e+01 4.3927e-01
1.0081e+01 3.3949e-01
1.0091e+01 2.4136e-01
1.0101e+01 1.9234e-01
1.0111e+01 1.7368e-01
1.0121e+01 1.5686e-01
1.0131e+01 1.5390e-01
1.0141e+01 1.5864e-01
1.0151e+01 1.6105e-01
1.0161e+01 1.6737e-01
1.0171e+01 1.5806e-01
1.0181e+01 1.5518e-01
1.0191e+01 1.4885e-01
1.0201e+01 1.4643e-01
1.0211e+01 1.5233e-01
1.0221e+01 1.4704e-01
1.0232e+01 1.5019e-01
1.0242e+01 1.4618e-01
1.0252e+01 1.5738e-01
1.0262e+01 1.5032e-01
1.0272e+01 1.5686e-01
1.0282e+01 1.4507e-01
1.0292e+01 1.4405e-01
1.0302e+01 1.5328e-01
1.0312e+01 1.4577e-01
1.0322e+01 1.5056e-01
1.0332e+01 1.5005e-01
1.0342e+01 1.5654e-01
1.0352e+01 1.5370e-01
1.0362e+01 1.5548e-01
1.0372e+01 1.5050e-01
1.0382e+01 1.4216e-01
1.0392e+01 1.4787e-01
1.0402e+01 1.5288e-01
1.0412e+01 1.4849e-01
1.0422e+01 1.4550e-01
1.0432e+01 1.4734e-01
1.0442e+01 1.4371e-01
1.0452e+01 1.5940e-01
1.0462e+01 1.5663e-01
1.0472e+01 1.5227e-01
1.0482e+01 1.4328e-01
1.0492e+01 1.5554e-01
1.0502e+01 1.5271e-01
1.0512e+01 1.5582e-01
1.0522e+01 1.5416e-01
1.0532e+01 1.5468e-01
1.0542e+01 1.7170e-01
1.0552e+01 2.0516e-01
1.0562e+01 2.8419e-01
1.0572e+01 4.2250e-01
1.0582e+01 4.8013e-01
1.0592e+01 4.0599e-01
1.0602e+01 2.6962e-01
1.0612e+01 1.9718e-01
1.0622e+01 1.5918e-01
1.0632e+01 1.6599e-01
1.0642e+01 1.5203e-01
1.0652e+01 1.5054e-01
1.0662e+01 1.5190e-01
1.0672e+01 1.5400e-01
1.0682e+01 1.4670e-01
1.0692e+01 1.6353e-01
1.0702e+01 1.5492e-01
1.0712e+01 1.5818e-01
1.0722e+01 1.5205e-01
1.0732e+01 1.5759e-01
1.0742e+01 1.6084e-01
1.0752e+01 1.7244e-01
1.0762e+01 1.8838e-01
1.0773e+01 2.1287e-01
1.0783e+01 2.0149e-01
1.0793e+01 2.0602e-01
1.0803e+01 2.0133e-01
1.0813e+01 1.9902e-01
1.0823e+01 1.8006e-01
1.0833e+01 1.8835e-01
1.0843e+01 1.9061e-01
1.0853e+01 2.0783e-01
1.0863e+01 2.4440e-01
1.0873e+01 3.9459e-01
1.0883e+01 6.2642e-01
1.0893e+01 8.3279e-01
1.0903e+01 7.7797e-01
1.0913e+01 6.1766e-01
1.0923e+01 5.4361e-01
1.0933e+01 5.0401e-01
1.0943e+01 3.9109e-01
1.0953e+01 2.9070e-01
1.0963e+01 2.6681e-01
1.0973e+01 3.2076e-01
1.0983e+01 5.1636e-01
1.0993e+01 6.5842e-01
1.1003e+01 6.5008e-01
1.1013e+01 4.5271e-01
1.1023e+01 2.9081e-01
1.1033e+01 2.2060e-01
1.1043e+01 1.8518e-01
1.1053e+01 1.8927e-01
1.1063e+01 1.7926e-01
1.1073e+01 1.5713e-01
1.1083e+01 1.7588e-01
1.1093e+01 1.7063e-01
1.1103e+01 1.8914e-01
1.1113e+01 1.8352e-01
1.1123e+01 1.8167e-01
1.1133e+01 1.7342e-01
1.1143e+01 1.7765e-01
1.1153e+01 1.6862e-01
1.1163e+01 1.7850e-01
1.1173e+01 1.8638e-01
1.1183e+01 1.8595e-01
1.1193e+01 1.9095e-01
1.1203e+01 1.8806e-01
1.1213e+01 1.9146e-01
1.1224e+01 2.1491e-01
1.1234e+01 2.3686e-01
1.1244e+01 2.0157e-01