File: notebooks/003.xrd_phase_identification_with_pymatgen.data/mix_CeO2_LaB6_wl=0.1820.xy
0.831674 42.6071
0.842753 42.4807
0.853831 42.1638
0.864909 41.877
0.875988 41.6926
0.887066 41.4483
0.898145 41.0733
0.909223 40.8208
0.920302 40.545
0.93138 40.3916
0.942459 40.1074
0.953537 39.9568
0.964615 39.6864
0.975694 39.5677
0.986773 39.3534
0.997851 39.0473
1.00893 38.8707
1.02001 38.7727
1.03109 38.5894
1.04217 38.4587
1.05324 38.2862
1.06432 37.6589
1.0754 37.7117
1.08648 37.6604
1.09756 37.5271
1.10864 37.4892
1.11972 37.333
1.13079 37.2502
1.14187 37.1242
1.15295 37.1645
1.16403 37.1035
1.17511 37.0367
1.18619 37.0321
1.19727 36.9905
1.20834 36.9588
1.21942 36.997
1.2305 36.9928
1.24158 37.1625
1.25266 37.205
1.26374 37.158
1.27482 37.1905
1.2859 37.2553
1.29697 37.3202
1.30805 37.2879
1.31913 37.3852
1.33021 37.4216
1.34129 37.4154
1.35237 37.3611
1.36345 37.4866
1.37453 37.4261
1.38561 37.4014
1.39668 37.3882
1.40776 37.368
1.41884 37.3429
1.42992 37.2618
1.441 37.292
1.45208 37.3024
1.46316 37.3468
1.47424 37.3265
1.48532 37.2424
1.4964 37.301
1.50747 37.2576
1.51855 37.2843
1.52963 37.3029
1.54071 37.2698
1.55179 37.2709
1.56287 37.3556
1.57395 37.4559
1.58503 37.4488
1.59611 37.4424
1.60719 37.4894
1.61827 37.5799
1.62935 37.6298
1.64042 37.5858
1.6515 37.7124
1.66258 37.7405
1.67366 37.769
1.68474 37.8141
1.69582 37.9534
1.7069 37.9946
1.71798 38.1451
1.72906 38.2484
1.74014 38.3459
1.75122 38.4575
1.7623 38.5815
1.77338 38.6488
1.78446 38.8114
1.79554 38.8895
1.80661 38.9414
1.81769 39.0475
1.82877 39.1208
1.83985 39.2837
1.85093 39.3771
1.86201 39.5371
1.87309 39.6177
1.88417 39.6398
1.89525 39.8039
1.90633 39.8688
1.91741 40.0001
1.92849 40.0462
1.93957 40.2014
1.95065 40.2635
1.96173 40.2982
1.97281 40.2924
1.98389 40.3507
1.99497 40.4263
2.00605 40.4384
2.01713 40.4034
2.02821 40.4414
2.03929 40.5445
2.05037 40.5311
2.06145 40.5577
2.07253 40.5256
2.08361 40.5002
2.09469 40.5181
2.10577 40.4848
2.11685 40.4109
2.12793 40.3751
2.13901 40.4073
2.15009 40.3514
2.16117 40.2233
2.17225 40.1467
2.18333 39.975
2.19441 39.892
2.20549 39.8498
2.21657 39.7905
2.22765 39.7023
2.23873 39.5425
2.24981 39.501
2.26089 39.3994
2.27197 39.2573
2.28305 39.1179
2.29413 39.0333
2.30521 38.9137
2.31629 38.7397
2.32737 38.5616
2.33845 38.4783
2.34953 38.3409
2.36061 38.2139
2.37169 38.1061
2.38277 38.0246
2.39385 37.943
2.40493 37.902
2.41601 37.8131
2.4271 37.8325
2.43818 38.0352
2.44926 38.6052
2.46034 40.1683
2.47142 45.8477
2.4825 72.9804
2.49358 149.609
2.50466 206.623
2.51574 195.066
2.52682 123.655
2.5379 59.7034
2.54898 42.2345
2.56006 38.2487
2.57115 36.7664
2.58223 36.0478
2.59331 35.7072
2.60439 35.3517
2.61547 35.1751
2.62655 35.0119
2.63763 34.8326
2.64871 34.6649
2.65979 34.5246
2.67087 34.3502
2.68196 34.2735
2.69304 34.1418
2.70412 34.0086
2.7152 33.9031
2.72628 33.7412
2.73736 33.6368
2.74844 33.547
2.75952 33.4812
2.77061 33.3749
2.78169 33.2748
2.79277 33.1636
2.80385 33.0212
2.81493 32.9659
2.82601 32.8834
2.83709 32.7874
2.84818 32.6751
2.85926 32.5718
2.87034 32.5539
2.88142 32.508
2.8925 32.3867
2.90358 32.3486
2.91466 32.3102
2.92575 32.2778
2.93683 32.2306
2.94791 32.1135
2.95899 32.0061
2.97007 32.0162
2.98116 31.9702
2.99224 31.9343
3.00332 31.9003
3.0144 31.8961
3.02548 31.9237
3.03657 31.9312
3.04765 31.9072
3.05873 31.8889
3.06981 31.8655
3.08089 31.8935
3.09198 31.9472
3.10306 31.9827
3.11414 32.0325
3.12522 32.189
3.1363 32.294
3.14739 32.4552
3.15847 32.6383
3.16955 32.8915
3.18063 33.1962
3.19172 33.5981
3.2028 34.1194
3.21388 34.8706
3.22496 35.8461
3.23605 37.1747
3.24713 39.1968
3.25821 42.4831
3.26929 48.0671
3.28038 58.6496
3.29146 81.8513
3.30254 142.004
3.31362 304.152
3.32471 562.594
3.33579 759.376
3.34687 711.74
3.35796 469.592
3.36904 224.077
3.38012 109.464
3.3912 68.8213
3.40229 52.016
3.41337 43.8309
3.42445 39.441
3.43554 36.8632
3.44662 35.1235
3.4577 34.0181
3.46879 33.3756
3.47987 33.2526
3.49095 34.1236
3.50204 37.7488
3.51312 52.6323
3.5242 121.277
3.53529 259.232
3.54637 328.291
3.55745 302.779
3.56854 163.85
3.57962 63.9783
3.5907 38.5126
3.60179 32.3299
3.61287 30.077
3.62395 29.095
3.63504 28.6169
3.64612 28.3722
3.6572 28.1059
3.66829 27.9393
3.67937 27.8529
3.69046 27.7793
3.70154 27.7436
3.71262 27.7683
3.72371 27.8112
3.73479 27.914
3.74588 28.1677
3.75696 28.5337
3.76804 29.1459
3.77913 30.072
3.79021 31.9558
3.8013 35.8219
3.81238 45.0607
3.82346 71.1019
3.83455 132.763
3.84563 203.145
3.85672 236.237
3.8678 194.416
3.87889 120.024
3.88997 63.7798
3.90106 41.8061
3.91214 33.715
3.92322 30.2854
3.93431 28.4597
3.94539 27.4123
3.95648 26.7734
3.96756 26.268
3.97865 25.925
3.98973 25.6685
4.00082 25.4211
4.0119 25.1857
4.02299 25.0471
4.03407 24.9111
4.04516 24.7817
4.05624 24.6832
4.06733 24.6126
4.07841 24.5044
4.0895 24.4183
4.10058 24.3778
4.11167 24.2754
4.12275 24.235
4.13384 24.1981
4.14492 24.1535
4.15601 24.0924
4.16709 24.0239
4.17818 23.9782
4.18927 23.9439
4.20035 23.9492
4.21144 23.9426
4.22252 23.9075
4.23361 23.9463
4.24469 23.9728
4.25578 24.0069
4.26687 24.1463
4.27795 24.3979
4.28904 25.0942
4.30012 26.9413
4.31121 34.3966
4.32229 67.0303
4.33338 123.151
4.34447 147.809
4.35555 132.315
4.36664 75.4827
4.37773 38.0403
4.38881 27.4752
4.3999 24.9178
4.41098 24.0951
4.42207 23.6616
4.43316 23.4793
4.44424 23.3904
4.45533 23.2949
4.46642 23.1836
4.4775 23.1393
4.48859 23.0465
4.49968 23.0001
4.51076 22.9814
4.52185 22.9278
4.53294 22.8559
4.54402 22.7962
4.55511 22.7874
4.5662 22.7684
4.57728 22.7661
4.58837 22.6805
4.59946 22.6194
4.61054 22.5764
4.62163 22.5485
4.63272 22.5184
4.64381 22.4838
4.65489 22.4373
4.66598 22.4515
4.67707 22.3851
4.68816 22.3506
4.69924 22.3949
4.71033 22.3622
4.72142 22.3469
4.7325 22.3447
4.74359 22.3085
4.75468 22.3297
4.76577 22.3271
4.77686 22.3011
4.78794 22.2706
4.79903 22.2578
4.81012 22.2541
4.82121 22.2829
4.83229 22.2516
4.84338 22.2466
4.85447 22.2406
4.86556 22.2688
4.87665 22.2576
4.88774 22.248
4.89882 22.2762
4.90991 22.2692
4.921 22.2979
4.93209 22.3652
4.94318 22.4359
4.95427 22.6544
4.96535 23.1468
4.97644 24.6456
4.98753 30.8683
4.99862 52.516
5.00971 82.7895
5.0208 97.048
5.03189 79.199
5.04297 44.8797
5.05406 28.1262
5.06515 24.0737
5.07624 23.0436
5.08733 22.6894
5.09842 22.5054
5.10951 22.4713
5.1206 22.4363
5.13169 22.4396
5.14278 22.4984
5.15387 22.5692
5.16495 22.5331
5.17604 22.547
5.18713 22.5722
5.19822 22.6349
5.20931 22.6914
5.2204 22.7839
5.23149 22.8307
5.24258 22.9424
5.25367 23.06
5.26476 23.2174
5.27585 23.4159
5.28694 23.6564
5.29803 23.9231
5.30912 24.2332
5.32021 24.6479
5.3313 25.1665
5.34239 25.9557
5.35348 27.064
5.36457 28.6619
5.37566 31.2611
5.38675 35.7647
5.39784 44.4787
5.40893 63.7557
5.42002 113.401
5.43111 227.868
5.4422 371.852
5.45329 453.473
5.46439 394.473
5.47548 251.923
5.48657 127.268
5.49766 68.5182
5.50875 46.0239
5.51984 36.3326
5.53093 31.5891
5.54202 29.238
5.55311 28.2901
5.5642 29.1612
5.5753 36.072
5.58639 68.6162
5.59748 135.488
5.60857 178.929
5.61966 163.519
5.63075 98.5331
5.64184 44.8752
5.65294 28.3217
5.66403 24.4547
5.67512 23.1441
5.68621 22.5318
5.6973 22.196
5.70839 21.963
5.71949 21.8073
5.73058 21.679
5.74167 21.5184
5.75276 21.4572
5.76385 21.3617
5.77495 21.2788
5.78604 21.2218
5.79713 21.1516
5.80822 21.0891
5.81932 21.0724
5.83041 21.0129
5.8415 20.9705
5.85259 20.9666
5.86369 20.9416
5.87478 20.9212
5.88587 20.868
5.89696 20.85
5.90806 20.8319
5.91915 20.804
5.93024 20.8257
5.94133 20.8018
5.95243 20.7737
5.96352 20.7572
5.97461 20.7513
5.98571 20.7658
5.9968 20.7721
6.00789 20.7978
6.01899 20.8145
6.03008 20.8835
6.04117 20.9261
6.05227 20.9793
6.06336 21.0771
6.07445 21.2164
6.08555 21.5596
6.09664 22.379
6.10774 25.0609
6.11883 37.1864
6.12992 68.4545
6.14102 99.7361
6.15211 102.59
6.16321 73.3615
6.1743 39.005
6.18539 25.9406
6.19649 23.0352
6.20758 22.3426
6.21868 22.1896
6.22977 22.2802
6.24087 22.4537
6.25196 22.7119
6.26306 23.0734
6.27415 23.5638
6.28525 24.3176
6.29634 25.2693
6.30744 26.7878
6.31853 29.1953
6.32963 33.347
6.34072 41.4932
6.35182 59.9337
6.36291 107.078
6.37401 209.387
6.3851 327.015
6.3962 381.231
6.40729 318.366
6.41839 197.413
6.42948 101.358
6.44058 57.0591
6.45167 39.7885
6.46277 32.2016
6.47387 28.311
6.48496 26.1226
6.49606 24.7343
6.50715 23.8521
6.51825 23.2128
6.52935 22.7541
6.54044 22.4394
6.55154 22.2029
6.56263 22.0623
6.57373 22.0051
6.58483 22.0993
6.59592 22.3278
6.60702 22.7584
6.61812 23.6445
6.62921 25.5762
6.64031 30.3305
6.65141 42.3553
6.6625 63.8064
6.6736 82.4869
6.6847 85.4266
6.69579 68.3842
6.70689 46.273
6.71799 31.8696
6.72909 25.71
6.74018 23.0915
6.75128 21.9451
6.76238 21.2683
6.77347 20.876
6.78457 20.6141
6.79567 20.4595
6.80677 20.2611
6.81787 20.1838
6.82896 20.0998
6.84006 19.9791
6.85116 19.9247
6.86226 19.8567
6.87335 19.812
6.88445 19.7698
6.89555 19.737
6.90665 19.7197
6.91775 19.6588
6.92885 19.6496
6.93994 19.6284
6.95104 19.5632
6.96214 19.5407
6.97324 19.5824
6.98434 19.5547
6.99544 19.5754
7.00654 19.5951
7.01764 19.5667
7.02873 19.6467
7.03983 19.7581
7.05093 20.1313
7.06203 21.573
7.07313 27.6537
7.08423 41.1804
7.09533 51.0569
7.10643 48.3293
7.11753 35.5657
7.12863 24.4706
7.13973 20.7315
7.15083 19.8288
7.16193 19.5698
7.17303 19.4864
7.18413 19.4251
7.19523 19.3793
7.20633 19.367
7.21743 19.3672
7.22853 19.3442
7.23963 19.3552
7.25073 19.3554
7.26183 19.3319
7.27293 19.3193
7.28403 19.3003
7.29513 19.3298
7.30623 19.3207
7.31733 19.3314
7.32843 19.3513
7.33953 19.347
7.35063 19.3827
7.36173 19.3756
7.37283 19.3971
7.38394 19.4212
7.39504 19.4088
7.40614 19.4308
7.41724 19.4741
7.42834 19.5452
7.43944 19.6092
7.45054 19.7572
7.46165 20.0279
7.47275 20.5809
7.48385 22.1009
7.49495 28.3055
7.50605 52.1545
7.51715 92.4469
7.52826 115.401
7.53936 101.5
7.55046 62.4922
7.56156 32.8849
7.57267 23.3561
7.58377 21.2241
7.59487 20.6505
7.60597 20.5051
7.61708 20.5871
7.62818 20.8141
7.63928 21.2674
7.65038 22.078
7.66149 23.7459
7.67259 27.7614
7.68369 38.1941
7.6948 59.1693
7.7059 81.1939
7.717 89.1241
7.7281 74.8541
7.73921 51.1835
7.75031 33.7059
7.76142 25.8504
7.77252 22.8458
7.78362 21.5466
7.79473 20.9366
7.80583 20.6008
7.81693 20.3817
7.82804 20.1949
7.83914 20.0947
7.85025 20.0358
7.86135 20.0782
7.87245 20.2522
7.88356 20.7063
7.89466 22.1954
7.90577 28.7824
7.91687 50.0196
7.92798 77.4143
7.93908 86.7896
7.95019 71.5232
7.96129 44.4081
7.9724 26.7112
7.9835 21.6413
7.99461 20.4231
8.00571 20.013
8.01682 19.8627
8.02792 19.8281
8.03903 19.7658
8.05013 19.7378
8.06124 19.6921
8.07234 19.7195
8.08345 19.7159
8.09456 19.7485
8.10566 19.7609
8.11677 19.7912
8.12787 19.829
8.13898 19.8337
8.15009 19.7838
8.16119 19.8487
8.1723 19.8834
8.1834 19.9494
8.19451 20.0178
8.20562 20.1003
8.21672 20.1987
8.22783 20.325
8.23894 20.5058
8.25004 20.6861
8.26115 20.9699
8.27226 21.5096
8.28337 22.8388
8.29447 28.0096
8.30558 42.2444
8.31669 58.7302
8.32779 65.7021
8.3389 57.8237
8.35001 42.4231
8.36112 38.5485
8.37222 51.565
8.38333 85.1628
8.39444 132.808
8.40555 164.098
8.41666 155.675
8.42776 112.946
8.43887 68.4451
8.44998 42.811
8.46109 31.9069
8.4722 27.2358
8.48331 24.9743
8.49441 23.7554
8.50552 23.1185
8.51663 22.7773
8.52774 22.7423
8.53885 22.9331
8.54996 23.4417
8.56107 24.5268
8.57218 26.8033
8.58329 32.077
8.5944 45.064
8.6055 71.4725
8.61661 102.044
8.62772 116.239
8.63883 101.867
8.64994 71.0702
8.66105 45.1412
8.67216 33.3523
8.68327 30.76
8.69438 30.4865
8.70549 28.5542
8.7166 25.1479
8.72771 22.3394
8.73882 21.1187
8.74993 20.6893
8.76104 20.4349
8.77216 20.2761
8.78327 20.1309
8.79438 20.0479
8.80549 19.9435
8.8166 19.8854
8.82771 19.8467
8.83882 19.7907
8.84993 19.7302
8.86104 19.6945
8.87215 19.6752
8.88327 19.6526
8.89438 19.6538
8.90549 19.61
8.9166 19.5812
8.92771 19.5911
8.93882 19.5699
8.94994 19.536
8.96105 19.5415
8.97216 19.5626
8.98327 19.6007
8.99438 19.7545
9.0055 20.1416
9.01661 21.7161
9.02772 27.7493
9.03883 38.7738
9.04995 45.815
9.06106 43.4797
9.07217 33.5237
9.08329 24.3034
9.0944 20.7452
9.10551 19.9079
9.11663 19.6286
9.12774 19.5828
9.13885 19.5559
9.14997 19.5306
9.16108 19.5499
9.17219 19.5709
9.18331 19.5904
9.19442 19.6297
9.20553 19.641
9.21665 19.6821
9.22776 19.7165
9.23888 19.7469
9.24999 19.8245
9.26111 19.9071
9.27222 19.9882
9.28333 20.0882
9.29445 20.2421
9.30556 20.4366
9.31668 20.6979
9.32779 21.0663
9.33891 21.7306
9.35002 23.1925
9.36114 28.2727
9.37225 43.812
9.38337 66.8484
9.39448 80.8723
9.4056 78.4333
9.41671 70.5919
9.42783 85.4098
9.43895 122.645
9.45006 148.285
9.46118 140.103
9.47229 102.683
9.48341 63.2939
9.49453 40.278
9.50564 30.2567
9.51676 25.8267
9.52788 23.6428
9.53899 22.3898
9.55011 21.5721
9.56123 21.0343
9.57234 20.6574
9.58346 20.3948
9.59458 20.182
9.60569 20.0283
9.61681 19.9235
9.62793 19.8009
9.63905 19.7033
9.65016 19.6015
9.66128 19.5917
9.6724 19.5502
9.68352 19.4985
9.69463 19.4686
9.70575 19.4388
9.71687 19.4165
9.72799 19.3776
9.73911 19.3971
9.75022 19.4225
9.76134 19.3987
9.77246 19.3688
9.78358 19.3846
9.7947 19.3994
9.80582 19.4067
9.81694 19.4369
9.82805 19.477
9.83917 19.5066
9.85029 19.5702
9.86141 19.6611
9.87253 19.7582
9.88365 19.881
9.89477 20.0072
9.90589 20.2423
9.91701 20.5346
9.92813 20.935
9.93925 21.5183
9.95037 22.3906
9.96149 23.9374
9.97261 26.9264
9.98373 33.483
9.99485 48.9701
10.006 79.0131
10.0171 114.464
10.0282 132.663
10.0393 120.091
10.0505 86.4367
10.0616 54.0745
10.0727 35.3563
10.0838 27.1685
10.0949 23.7931
10.1061 22.1704
10.1172 21.2842
10.1283 20.7048
10.1394 20.33
10.1505 20.0805
10.1617 19.8379
10.1728 19.6789
10.1839 19.5831
10.195 19.4756
10.2062 19.3869
10.2173 19.333
10.2284 19.29
10.2395 19.2359
10.2506 19.1995
10.2618 19.2022
10.2729 19.21
10.284 19.2229
10.2951 19.3784
10.3063 19.867
10.3174 21.8113
10.3285 29.3192
10.3396 43.8519
10.3508 55.9022
10.3619 56.4352
10.373 44.0579
10.3841 29.5437
10.3952 21.8635
10.4064 19.7603
10.4175 19.2248
10.4286 19.014
10.4397 18.9037
10.4509 18.8931
10.462 18.8675
10.4731 18.8401
10.4842 18.8227
10.4954 18.8106
10.5065 18.7898
10.5176 18.7887
10.5287 18.8116
10.5399 18.8505
10.551 18.865
10.5621 18.8826
10.5732 18.8907
10.5844 18.9463
10.5955 19.1119
10.6066 19.4926
10.6177 21.0932
10.6289 27.0825
10.64 38.6868
10.6511 48.9553
10.6622 48.7904
10.6734 39.5333
10.6845 27.6809
10.6956 21.3627
10.7068 19.6727
10.7179 19.2445
10.729 19.1244
10.7401 19.0557
10.7513 19.0276
10.7624 19.1014
10.7735 19.151
10.7846 19.198
10.7958 19.2906
10.8069 19.3968
10.818 19.5555
10.8292 19.7826
10.8403 20.1052
10.8514 20.6419
10.8625 21.5961
10.8737 23.587
10.8848 28.0226
10.8959 37.1583
10.907 49.4616
10.9182 58.8069
10.9293 59.5668
10.9404 53.5307
10.9516 43.9184
10.9627 34.6407
10.9738 26.9985
10.9849 22.4457
10.9961 20.7204
11.0072 20.0763
11.0183 19.7741
11.0295 19.585
11.0406 19.4987
11.0517 19.4238
11.0629 19.3597
11.074 19.2962
11.0851 19.2538
11.0962 19.2622
11.1074 19.2378
11.1185 19.2468
11.1296 19.2664
11.1408 19.2805
11.1519 19.342
11.163 19.384
11.1742 19.4953
11.1853 19.7593
11.1964 20.7134
11.2076 23.843
11.2187 29.7286
11.2298 35.1354
11.2409 35.2769
11.2521 30.4547
11.2632 24.5427
11.2743 21.3374
11.2855 20.5766
11.2966 20.5455
11.3077 20.7817
11.3189 21.1563
11.33 21.7007
11.3411 22.569
11.3523 23.9212
11.3634 26.362
11.3745 31.3451
11.3857 42.5179
11.3968 65.5128
11.4079 97.4205
11.4191 118.193
11.4302 113.781
11.4413 86.5204
11.4525 56.1773
11.4636 38.0819
11.4747 31.4576
11.4859 33.8799
11.497 44.0709
11.5081 53.0535
11.5193 53.59
11.5304 45.1155
11.5415 36.1146
11.5527 35.9804
11.5638 46.3312
11.5749 59.1228
11.5861 64.053
11.5972 57.4174
11.6084 43.4816
11.6195 31.6896
11.6306 25.4522
11.6418 22.7905
11.6529 21.4925
11.664 20.7894
11.6752 20.3477
11.6863 20.01
11.6974 19.8317
11.7086 19.6908
11.7197 19.5847
11.7308 19.6092
11.742 19.981
11.7531 21.5565
11.7643 25.7293
11.7754 31.1654
11.7865 33.5045
11.7977 30.466
11.8088 25.4071
11.8199 21.3411
11.8311 19.597
11.8422 19.1658
11.8534 19.0312
11.8645 18.9591
11.8756 18.8943
11.8868 18.8727
11.8979 18.8384
11.909 18.8198
11.9202 18.8174
11.9313 18.797
11.9425 18.8018
11.9536 18.8292
11.9647 18.7787
11.9759 18.7579
11.987 18.7872
11.9982 18.7596
12.0093 18.8063
12.0204 18.8498
12.0316 18.8825
12.0427 18.92
12.0538 18.9566
12.065 19.0429
12.0761 19.083
12.0873 19.1678
12.0984 19.3017
12.1095 19.4792
12.1207 19.7257
12.1318 20.1016
12.143 20.7471
12.1541 21.9175
12.1653 24.1512
12.1764 29.258
12.1875 39.9231
12.1987 55.6386
12.2098 67.1385
12.221 66.1332
12.2321 53.1992
12.2432 37.7694
12.2544 28.0541
12.2655 23.6969
12.2767 22.3582
12.2878 23.2205
12.2989 25.5191
12.3101 27.1092
12.3212 26.1973
12.3324 23.6956
12.3435 21.0278
12.3547 19.5841
12.3658 19.1744
12.3769 19.0019
12.3881 18.935
12.3992 18.894
12.4104 18.8356
12.4215 18.8249
12.4327 18.8268
12.4438 18.8745
12.455 18.9087
12.4661 18.8763
12.4772 18.9032
12.4884 18.9265
12.4995 18.9815
12.5107 19.0869
12.5218 19.3336
12.533 20.1476
12.5441 22.261
12.5553 25.152
12.5664 26.852
12.5775 26.1422
12.5887 23.9459
12.5998 22.2454
12.611 22.203
12.6221 24.1946
12.6333 28.938
12.6444 37.4023
12.6556 46.8602
12.6667 50.9875
12.6779 47.0182
12.689 37.4663
12.7001 29.0029
12.7113 24.2641
12.7224 22.2612
12.7336 21.4932
12.7447 21.356
12.7559 21.8316
12.767 23.4329
12.7782 28.0221
12.7893 39.5882
12.8005 56.444
12.8116 69.0413
12.8228 68.6498
12.8339 54.1441
12.8451 36.608
12.8562 25.9243
12.8674 21.8472
12.8785 20.473
12.8897 19.8424
12.9008 19.4324
12.912 19.2117
12.9231 19.0882
12.9342 18.9582
12.9454 18.8565
12.9565 18.8068
12.9677 18.8012
12.9788 18.8046
12.99 18.8038
13.0011 18.8486
13.0123 19.0032
13.0234 19.6638
13.0346 22.1188
13.0457 26.2356
13.0569 29.6753
13.068 30.2133
13.0792 26.9091
13.0903 22.6122
13.1015 19.9501
13.1126 18.9693
13.1238 18.6426
13.135 18.5702
13.1461 18.5218
13.1573 18.5083
13.1684 18.5431
13.1796 18.5255
13.1907 18.5413
13.2019 18.5702
13.213 18.545
13.2242 18.5336
13.2353 18.5749
13.2465 18.5964
13.2576 18.5675
13.2688 18.5408
13.2799 18.6372
13.2911 18.7208
13.3022 18.8665
13.3134 19.0506
13.3245 19.3441
13.3357 19.8286
13.3468 20.8816
13.358 23.0276
13.3692 26.1379
13.3803 28.7001
13.3915 28.9301
13.4026 26.6562
13.4138 23.4833
13.4249 21.1509
13.4361 20.0102
13.4472 19.4879
13.4584 19.1902
13.4695 19.1093
13.4807 19.1472
13.4919 19.4503
13.503 20.9778
13.5142 25.6201
13.5253 32.4828
13.5365 37.636
13.5476 37.5835
13.5588 32.0611
13.5699 25.2979
13.5811 20.8632
13.5923 19.4475
13.6034 19.0917
13.6146 19.1578
13.6257 19.0934
13.6369 19.1027
13.648 19.1325
13.6592 19.256
13.6704 19.4165
13.6815 19.5383
13.6927 19.6348
13.7038 20.0427
13.715 20.4265
13.7261 21.213
13.7373 22.9142
13.7485 26.5765
13.7596 33.4177
13.7708 43.9561
13.7819 56.8216
13.7931 66.477
13.8043 66.6163
13.8154 56.6719
13.8266 42.223
13.8377 31.1593
13.8489 25.5913
13.8601 23.1176
13.8712 22.201
13.8824 22.1832
13.8935 23.1169
13.9047 25.6649
13.9159 30.1245
13.927 34.3628
13.9382 35.7188
13.9493 33.2766
13.9605 28.3219
13.9717 24.0333
13.9828 21.546
13.994 20.4643
14.0051 19.9063
14.0163 19.5921
14.0275 19.3329
14.0386 19.2029
14.0498 19.211
14.0609 19.1009
14.0721 19.0541
14.0833 18.9777
14.0944 18.9268
14.1056 18.9797
14.1168 18.9487
14.1279 18.8582
14.1391 18.9115
14.1502 18.9865
14.1614 19.0085
14.1726 18.9483
14.1837 19.0577
14.1949 19.5918
14.2061 20.8308
14.2172 22.0397
14.2284 22.2005
14.2396 21.7803
14.2507 20.8125
14.2619 19.7935
14.2731 19.3281
14.2842 19.1679
14.2954 19.179
14.3065 19.2978
14.3177 19.3662
14.3289 19.4611
14.34 19.5247
14.3512 19.7578
14.3624 19.9354
14.3735 20.3504
14.3847 20.9709
14.3959 21.9273
14.407 24.0881
14.4182 29.0289
14.4294 39.637
14.4405 55.1651
14.4517 69.4635
14.4629 74.7125
14.474 68.9722
14.4852 53.8322
14.4964 38.4818
14.5075 29.0234
14.5187 24.5457
14.5299 22.2848
14.541 21.3151
14.5522 20.6774
14.5634 20.1971
14.5745 19.8766
14.5857 19.7243
14.5969 19.6979
14.6081 19.6151
14.6192 19.9192
14.6304 20.8749
14.6416 23.4528
14.6527 27.6536
14.6639 31.6702
14.6751 32.2685
14.6862 29.0353
14.6974 24.3788
14.7086 21.2118
14.7197 20.0924
14.7309 19.8938
14.7421 19.9661
14.7533 20.2309
14.7644 20.6566
14.7756 21.2032
14.7868 22.4159
14.7979 24.6786
14.8091 29.2752
14.8203 38.4678
14.8315 52.4532
14.8426 65.5122
14.8538 70.1926
14.865 65.0849
14.8761 54.0173
14.8873 42.6996
14.8985 34.0932
14.9097 27.9698
14.9208 23.7912
14.932 21.3307
14.9432 20.2816
14.9543 19.7046
14.9655 19.5524
14.9767 19.413
14.9879 19.1429
14.999 19.0403
15.0102 18.898
15.0214 18.8198
15.0326 18.8487
15.0437 18.9456
15.0549 19.26
15.0661 20.3388
15.0773 22.4306
15.0884 24.7039
15.0996 25.3004
15.1108 23.2244
15.122 20.9794
15.1331 19.3814
15.1443 18.6813
15.1555 18.4622
15.1667 18.345
15.1778 18.3897
15.189 18.3145
15.2002 18.275
15.2114 18.284
15.2225 18.2742
15.2337 18.3653
15.2449 18.396
15.2561 18.2889
15.2673 18.5012
15.2784 19.3103
15.2896 20.1774
15.3008 20.7429
15.312 20.9092
15.3231 20.3633
15.3343 19.5069
15.3455 18.9756
15.3567 18.6738
15.3679 18.5772
15.379 18.5593
15.3902 18.5761
15.4014 18.831
15.4126 18.9028
15.4237 19.0481
15.4349 19.8603
15.4461 20.9192
15.4573 22.7384
15.4685 24.2876
15.4796 25.9062
15.4908 28.6305
15.502 30.7491
15.5132 30.2152
15.5244 27.3612
15.5355 23.387
15.5467 20.4076
15.5579 19.4343
15.5691 19.0228
15.5803 19.1148
15.5915 19.0125
15.6026 19.0662
15.6138 19.1971
15.625 18.9588
15.6362 18.9272
15.6474 19.0782