File: notebooks/003.xrd_phase_identification_with_pymatgen.data/unknown_xrd_3_wl=0.1814Angst.xy
1.15988 31.3637
1.17154 31.2081
1.18321 31.264
1.19487 31.1742
1.20653 31.3422
1.21819 31.3233
1.22986 31.1109
1.24152 31.1506
1.25318 31.1827
1.26485 31.3493
1.27651 31.4267
1.28817 31.3419
1.29983 31.3398
1.3115 31.4581
1.32316 31.2859
1.33482 31.3951
1.34648 31.3486
1.35815 31.2205
1.36981 31.1006
1.38147 30.8942
1.39313 30.8244
1.4048 30.8051
1.41646 30.5001
1.42812 30.2069
1.43979 30.3005
1.45145 30.1914
1.46311 30.0924
1.47477 29.9482
1.48644 29.8724
1.4981 29.5761
1.50976 29.5303
1.52143 29.5089
1.53309 29.526
1.54475 29.364
1.55641 29.2468
1.56808 29.1982
1.57974 29.1059
1.5914 29.0889
1.60307 28.9335
1.61473 28.8962
1.62639 28.9963
1.63806 29.2891
1.64972 29.7691
1.66138 29.6669
1.67305 29.1186
1.68471 28.837
1.69637 28.5251
1.70803 28.6768
1.7197 28.6309
1.73136 28.5833
1.74302 28.5237
1.75469 28.4511
1.76635 28.4898
1.77801 28.4404
1.78968 28.6076
1.80134 28.6895
1.813 28.6501
1.82467 28.6831
1.83633 28.4951
1.84799 28.5578
1.85966 28.4425
1.87132 28.5905
1.88298 28.5565
1.89465 28.5374
1.90631 28.3236
1.91798 28.5091
1.92964 28.5078
1.9413 28.4558
1.95297 28.1995
1.96463 28.3382
1.97629 28.3961
1.98796 28.2947
1.99962 28.2658
2.01128 28.1941
2.02295 28.2653
2.03461 28.1599
2.04628 28.0691
2.05794 28.0471
2.0696 27.8296
2.08127 27.8735
2.09293 27.6715
2.10459 27.6379
2.11626 27.5414
2.12792 27.5539
2.13959 27.4676
2.15125 27.2452
2.16291 27.1802
2.17458 27.1209
2.18624 27.0808
2.19791 27.088
2.20957 27.0866
2.22123 26.8017
2.2329 26.5791
2.24456 26.3908
2.25623 26.3074
2.26789 26.2772
2.27955 26.22
2.29122 25.904
2.30288 25.9316
2.31455 25.7174
2.32621 25.5035
2.33788 25.4389
2.34954 25.4121
2.3612 25.2879
2.37287 25.2979
2.38453 25.142
2.3962 24.7621
2.40786 24.6562
2.41953 24.629
2.43119 24.4954
2.44286 24.2754
2.45452 24.1235
2.46619 24.0723
2.47785 24.0156
2.48951 23.8194
2.50118 23.6609
2.51284 23.6567
2.52451 23.639
2.53617 23.7222
2.54784 23.5367
2.5595 23.3247
2.57117 23.2851
2.58283 23.1521
2.5945 23.0081
2.60616 22.8832
2.61783 22.6622
2.62949 22.5989
2.64116 22.4581
2.65282 22.3485
2.66449 22.2358
2.67615 22.2266
2.68782 22.0995
2.69948 22.1167
2.71115 22.0855
2.72281 21.9863
2.73448 21.8232
2.74614 21.8185
2.75781 21.9484
2.76947 21.8159
2.78114 21.8043
2.7928 21.9088
2.80447 22.2501
2.81614 23.2729
2.8278 24.2523
2.83947 27.736
2.85113 68.5027
2.8628 324.228
2.87446 413.005
2.88613 145.098
2.89779 32.8567
2.90946 23.3736
2.92113 21.9003
2.93279 21.1647
2.94446 20.7773
2.95612 20.3884
2.96779 20.1986
2.97945 20.0292
2.99112 19.9031
3.00279 19.8065
3.01445 19.6136
3.02612 19.4378
3.03778 19.1881
3.04945 19.0673
3.06112 18.8881
3.07278 18.8249
3.08445 18.7837
3.09611 18.6034
3.10778 18.4034
3.11945 18.275
3.13111 18.2064
3.14278 18.1134
3.15445 18.0101
3.16611 17.8381
3.17778 17.7375
3.18944 17.511
3.20111 17.4678
3.21278 17.2901
3.22444 17.1854
3.23611 17.1803
3.24778 17.1139
3.25944 16.9591
3.27111 16.9564
3.28278 16.9598
3.29444 17.0527
3.30611 17.1378
3.31778 16.9086
3.32944 16.6762
3.34111 16.2839
3.35278 15.9435
3.36444 15.8702
3.37611 15.7368
3.38778 15.5306
3.39945 15.4246
3.41111 15.3939
3.42278 15.3381
3.43445 15.2
3.44611 14.9418
3.45778 14.9845
3.46945 14.8647
3.48112 14.679
3.49278 14.723
3.50445 14.5888
3.51612 14.6335
3.52778 14.4184
3.53945 14.381
3.55112 14.3995
3.56279 14.1973
3.57445 14.1028
3.58612 13.9018
3.59779 13.9026
3.60946 13.9837
3.62113 13.7763
3.63279 13.6496
3.64446 13.6373
3.65613 13.5412
3.6678 13.484
3.67946 13.4532
3.69113 13.475
3.7028 13.2863
3.71447 13.2621
3.72614 13.2747
3.7378 13.1276
3.74947 13.0899
3.76114 13.0377
3.77281 12.9104
3.78448 12.8351
3.79615 12.7536
3.80781 12.7266
3.81948 12.7221
3.83115 12.6205
3.84282 12.5191
3.85449 12.4337
3.86616 12.4085
3.87782 12.4415
3.88949 12.6061
3.90116 12.8501
3.91283 12.9619
3.9245 13.7809
3.93617 21.0288
3.94784 60.4804
3.95951 76.5005
3.97117 39.0363
3.98284 16.4086
3.99451 13.0778
4.00618 12.6182
4.01785 12.2436
4.02952 12.0372
4.04119 11.9698
4.05286 11.7058
4.06453 11.6613
4.0762 11.7357
4.08787 11.558
4.09953 11.5639
4.1112 11.6162
4.12287 12.0534
4.13454 12.8165
4.14621 17.0589
4.15788 27.1925
4.16955 26.2828
4.18122 15.8101
4.19289 11.9074
4.20456 11.3523
4.21623 11.0731
4.2279 11.0673
4.23957 11.1348
4.25124 10.9296
4.26291 10.896
4.27458 10.9819
4.28625 11.1268
4.29792 10.931
4.30959 10.8434
4.32126 10.7092
4.33293 10.7314
4.3446 10.8041
4.35627 10.7916
4.36794 10.7026
4.37961 10.6414
4.39128 10.5058
4.40295 10.5121
4.41462 10.4283
4.42629 10.4441
4.43796 10.5067
4.44964 10.4879
4.46131 10.4312
4.47298 10.3114
4.48465 10.3517
4.49632 10.3419
4.50799 10.2972
4.51966 10.2082
4.53133 10.1233
4.543 10.3023
4.55467 10.2769
4.56634 10.1163
4.57802 10.0697
4.58969 10.1247
4.60136 10.034
4.61303 10.085
4.6247 10.0572
4.63637 10.0357
4.64804 10.0712
4.65972 10.0372
4.67139 10.2323
4.68306 10.0717
4.69473 9.96175
4.7064 10.3376
4.71807 10.5049
4.72975 10.4859
4.74142 11.085
4.75309 13.4936
4.76476 26.5989
4.77643 73.407
4.78811 87.9222
4.79978 43.6213
4.81145 15.0809
4.82312 10.9877
4.83479 10.3109
4.84647 10.1012
4.85814 9.93565
4.86981 9.77015
4.88148 9.63247
4.89316 9.57933
4.90483 9.58088
4.9165 9.51542
4.92817 9.5365
4.93985 9.67182
4.95152 9.7232
4.96319 9.70241
4.97487 9.50738
4.98654 9.47233
4.99821 9.45417
5.00988 9.69072
5.02156 10.0476
5.03323 11.0627
5.0449 15.5681
5.05658 21.393
5.06825 18.033
5.07992 11.6493
5.0916 9.82356
5.10327 9.54552
5.11494 9.42342
5.12662 9.37232
5.13829 9.36837
5.14996 9.35119
5.16164 9.34333
5.17331 9.27662
5.18499 9.26041
5.19666 9.25774
5.20833 9.19837
5.22001 9.27711
5.23168 9.23402
5.24336 9.2555
5.25503 9.26939
5.2667 9.19777
5.27838 9.19255
5.29005 9.11304
5.30173 9.05791
5.3134 9.04589
5.32508 9.06003
5.33675 9.08226
5.34843 8.96558
5.3601 9.02155
5.37177 9.07054
5.38345 9.04096
5.39512 8.93983
5.4068 8.91767
5.41847 8.98953
5.43015 8.81017
5.44182 8.85235
5.4535 8.80747
5.46517 8.88362
5.47685 8.80715
5.48852 8.83696
5.5002 8.91924
5.51188 8.93432
5.52355 8.97756
5.53523 8.92186
5.5469 8.89852
5.55858 8.88833
5.57025 8.75517
5.58193 8.70701
5.5936 8.77099
5.60528 8.84261
5.61696 8.95004
5.62863 8.93739
5.64031 9.01709
5.65198 8.88837
5.66366 8.83048
5.67534 9.05637
5.68701 9.17354
5.69869 9.57177
5.71037 11.0369
5.72204 18.2685
5.73372 51.6173
5.74539 74.511
5.75707 48.8155
5.76875 16.3236
5.78042 9.82637
5.7921 9.25356
5.80378 8.95408
5.81546 8.82989
5.82713 8.77107
5.83881 8.71407
5.85049 8.63193
5.86216 8.62162
5.87384 8.61514
5.88552 8.656
5.8972 8.46736
5.90887 8.53719
5.92055 8.61347
5.93223 8.40694
5.94391 8.46437
5.95558 8.38999
5.96726 8.4864
5.97894 8.51713
5.99062 8.47152
6.00229 8.44656
6.01397 8.57066
6.02565 8.65878
6.03733 8.47916
6.04901 8.40753
6.06068 8.47996
6.07236 8.51964
6.08404 8.48253
6.09572 8.47992
6.1074 8.51075
6.11908 8.45607
6.13076 8.42468
6.14243 8.27482
6.15411 8.47204
6.16579 8.57236
6.17747 8.58285
6.18915 8.65284
6.20083 8.87825
6.21251 8.95219
6.22419 9.0743
6.23587 9.25157
6.24754 9.94286
6.25922 12.2269
6.2709 27.6943
6.28258 81.8077
6.29426 104.109
6.30594 61.6067
6.31762 20.4338
6.3293 11.4143
6.34098 9.83473
6.35266 9.31806
6.36434 9.26708
6.37602 9.327
6.3877 10.0031
6.39938 12.1716
6.41106 13.7353
6.42274 11.7294
6.43442 9.44441
6.4461 8.81051
6.45778 8.79503
6.46946 8.71541
6.48114 8.74899
6.49282 8.93471
6.5045 9.54124
6.51618 10.8174
6.52787 14.5916
6.53955 28.3304
6.55123 42.7976
6.56291 36.6056
6.57459 17.485
6.58627 10.0664
6.59795 9.05482
6.60963 8.76545
6.62131 8.57071
6.633 8.42091
6.64468 8.4409
6.65636 8.36927
6.66804 8.33557
6.67972 8.28781
6.6914 8.30212
6.70309 8.74139
6.71477 11.5505
6.72645 17.8689
6.73813 18.834
6.74981 13.2037
6.7615 9.52705
6.77318 8.63664
6.78486 8.39748
6.79654 8.29363
6.80823 8.23768
6.81991 8.27658
6.83159 8.17332
6.84327 8.1869
6.85496 8.18086
6.86664 8.17912
6.87832 8.23641
6.89 8.1707
6.90169 8.11055
6.91337 8.0463
6.92505 8.14753
6.93674 8.16902
6.94842 8.18844
6.9601 8.2325
6.97179 8.19019
6.98347 8.16174
6.99515 8.32102
7.00684 8.2604
7.01852 8.34459
7.03021 8.44561
7.04189 8.69185
7.05357 9.06711
7.06526 10.4517
7.07694 15.3387
7.08863 27.0857
7.10031 31.6629
7.112 22.0969
7.12368 11.9466
7.13536 9.38326
7.14705 9.12896
7.15873 9.29209
7.17042 9.94316
7.1821 11.7969
7.19379 17.6448
7.20547 31.4119
7.21716 37.8042
7.22884 27.3376
7.24053 13.5902
7.25221 9.58319
7.2639 8.82425
7.27558 8.51958
7.28727 8.39584
7.29895 8.31491
7.31064 8.28402
7.32233 8.09856
7.33401 8.13395
7.3457 8.08368
7.35738 8.15567
7.36907 7.98869
7.38076 8.0165
7.39244 8.07311
7.40413 8.12571
7.41581 8.16169
7.4275 8.15447
7.43919 8.15783
7.45087 8.36023
7.46256 8.97086
7.47425 10.1135
7.48593 10.0715
7.49762 8.90854
7.50931 8.26966
7.521 8.11759
7.53268 8.07417
7.54437 7.99855
7.55606 8.02867
7.56774 7.99244
7.57943 8.02396
7.59112 8.07842
7.60281 8.02466
7.61449 7.9682
7.62618 8.04559
7.63787 7.96935
7.64956 7.93453
7.66125 7.93218
7.67293 7.90255
7.68462 7.83665
7.69631 7.85362
7.708 7.87075
7.71969 7.80579
7.73137 7.76229
7.74306 7.80333
7.75475 7.85005
7.76644 7.79072
7.77813 7.79713
7.78982 7.79021
7.80151 7.79703
7.8132 7.70708
7.82489 7.65883
7.83657 7.76983
7.84826 7.75751
7.85995 7.76009
7.87164 7.91245
7.88333 8.3187
7.89502 10.1816
7.90671 16.7519
7.9184 22.437
7.93009 19.1067
7.94178 11.761
7.95347 8.73552
7.96516 8.02188
7.97685 7.83883
7.98854 7.77284
8.00023 7.70178
8.01192 7.76549
8.02361 7.73725
8.0353 7.65167
8.04699 7.67275
8.05868 7.70219
8.07038 7.66453
8.08207 7.71016
8.09376 7.75981
8.10545 7.66755
8.11714 7.75198
8.12883 7.68578
8.14052 7.63873
8.15221 7.78442
8.16391 7.80166
8.1756 8.051
8.18729 8.78958
8.19898 12.4295
8.21067 19.1637
8.22236 21.7085
8.23406 17.0304
8.24575 11.2974
8.25744 8.86964
8.26913 8.18908
8.28083 8.04454
8.29252 8.04638
8.30421 8.26491
8.3159 9.24246
8.3276 10.7576
8.33929 10.8581
8.35098 9.38006
8.36267 8.11152
8.37437 7.75042
8.38606 7.66644
8.39775 8.12184
8.40945 8.87684
8.42114 8.93551
8.43283 8.24666
8.44453 7.65618
8.45622 7.39347
8.46791 7.36801
8.47961 7.37228
8.4913 7.38544
8.503 7.35124
8.51469 7.33628
8.52639 7.33294
8.53808 7.32876
8.54977 7.32111
8.56147 7.34766
8.57316 7.35688
8.58486 7.45288
8.59655 7.74018
8.60825 8.32779
8.61994 9.07502
8.63164 9.06697
8.64333 8.92246
8.65503 9.58734
8.66672 9.67864
8.67842 8.90214
8.69011 8.64717
8.70181 9.15422
8.7135 9.58023
8.7252 8.8046
8.7369 7.94792
8.74859 7.72834
8.76029 7.8447
8.77198 8.37844
8.78368 9.68619
8.79538 13.1025
8.80707 19.6248
8.81877 22.3311
8.83047 17.3395
8.84216 10.4446
8.85386 8.03945
8.86556 7.55924
8.87725 7.25148
8.88895 7.16224
8.90065 7.33021
8.91234 7.35553
8.92404 8.38743
8.93574 11.8615
8.94744 15.7913
8.95913 14.6809
8.97083 10.0407
8.98253 7.64227
8.99423 7.09262
9.00593 7.00277
9.01762 6.89367
9.02932 6.93184
9.04102 6.97573
9.05272 6.86814
9.06442 6.94187
9.07612 6.81701
9.08781 6.76472
9.09951 6.77719
9.11121 6.77203
9.12291 6.77956
9.13461 6.68063
9.14631 6.72433
9.15801 6.84277
9.16971 6.77803
9.18141 6.8947
9.19311 7.35878
9.20481 8.54255
9.21651 10.7874
9.2282 11.7379
9.2399 10.1263
9.2516 7.92315
9.2633 6.95426
9.275 6.83691
9.28671 6.73369
9.29841 6.61595
9.31011 6.62763
9.32181 6.54355
9.33351 6.55368
9.34521 6.65922
9.35691 6.60307
9.36861 6.65795
9.38031 6.63594
9.39201 6.74043
9.40371 6.89258
9.41541 7.51377
9.42712 9.22081
9.43882 10.3888
9.45052 9.68397
9.46222 7.91281
9.47392 7.31863
9.48562 7.01413
9.49733 7.07728
9.50903 7.39715
9.52073 8.01765
9.53243 8.2643
9.54414 8.16851
9.55584 9.41565
9.56754 13.2472
9.57924 15.7545
9.59095 13.7367
9.60265 9.34873
9.61435 7.26343
9.62606 6.88582
9.63776 6.67056
9.64946 6.61287
9.66117 6.59385
9.67287 6.5489
9.68457 6.63247
9.69628 6.72023
9.70798 6.72299
9.71968 7.07332
9.73139 7.95108
9.74309 9.61888
9.7548 10.5249
9.7665 9.3876
9.7782 7.61411
9.78991 6.69033
9.80161 6.54091
9.81332 6.45016
9.82502 6.3534
9.83673 6.42145
9.84843 6.46176
9.86014 6.31981
9.87184 6.29574
9.88355 6.25201
9.89525 6.36159
9.90696 6.25976
9.91867 6.30487
9.93037 6.48634
9.94208 6.44101
9.95378 6.31958
9.96549 6.34138
9.9772 6.49118
9.9889 6.41631
10.0006 6.27462
10.0123 6.30574
10.024 6.31146
10.0357 6.26221
10.0474 6.35064
10.0591 6.53464
10.0708 6.57627
10.0826 6.66839
10.0943 7.42681
10.106 9.64577
10.1177 12.3963
10.1294 12.4894
10.1411 9.73809
10.1528 7.47682
10.1645 6.75445
10.1762 6.45611
10.1879 6.37829
10.1996 6.40585
10.2113 6.36917
10.2231 6.41878
10.2348 6.42767
10.2465 6.51579
10.2582 6.67632
10.2699 7.09473
10.2816 7.40486
10.2933 7.26144
10.305 7.64935
10.3167 8.36022
10.3284 8.42029
10.3401 7.27992
10.3518 6.59746
10.3636 6.38502
10.3753 6.34845
10.387 6.44396
10.3987 6.27554
10.4104 6.38615
10.4221 6.18393
10.4338 6.3398
10.4455 6.36758
10.4572 6.19297
10.469 6.30751
10.4807 6.2432
10.4924 6.29327
10.5041 6.38657
10.5158 6.27318
10.5275 6.27136
10.5392 6.35363
10.5509 6.30949
10.5626 6.24845
10.5744 6.35729
10.5861 6.75388
10.5978 7.26227
10.6095 7.60082
10.6212 7.36178
10.6329 6.74037
10.6446 6.34253
10.6563 6.25444
10.6681 6.31992
10.6798 6.41516
10.6915 6.55807
10.7032 7.17665
10.7149 8.00847
10.7266 8.28562
10.7383 7.69861
10.75 6.92529
10.7618 6.56022
10.7735 6.4596
10.7852 6.29123
10.7969 6.20033
10.8086 6.28359
10.8203 6.31861
10.832 6.33992
10.8438 6.25129
10.8555 6.2704
10.8672 6.38848
10.8789 6.44287
10.8906 6.47458
10.9023 6.59603
10.914 7.1311
10.9258 8.27905
10.9375 10.144
10.9492 12.3618
10.9609 12.6744
10.9726 10.5728
10.9843 8.00226
10.996 7.12894
11.0078 7.13094
11.0195 7.6761
11.0312 8.18633
11.0429 8.03023
11.0546 7.19893
11.0663 6.57193
11.0781 6.30759
11.0898 6.20321
11.1015 6.15247
11.1132 6.28156
11.1249 6.2563
11.1366 6.26145
11.1484 6.35475
11.1601 6.1337
11.1718 6.17153
11.1835 6.21787
11.1952 6.17517
11.207 6.19872
11.2187 6.10897
11.2304 6.20281
11.2421 6.23692
11.2538 6.77035
11.2655 7.6078
11.2773 8.25106
11.289 8.16934
11.3007 7.2606
11.3124 6.51609
11.3241 6.20307
11.3359 6.17168
11.3476 6.2041
11.3593 6.1219
11.371 6.18229
11.3827 6.21531
11.3945 6.13675
11.4062 6.20493
11.4179 6.3324
11.4296 6.25279
11.4413 6.28273
11.4531 6.22026
11.4648 6.19732
11.4765 6.33435
11.4882 6.72352
11.4999 7.14116
11.5117 7.22918
11.5234 6.97213
11.5351 6.4408
11.5468 6.2788
11.5585 6.23566
11.5703 6.29441
11.582 6.25981
11.5937 6.2254
11.6054 6.11623
11.6171 6.25672
11.6289 6.34805
11.6406 6.27295
11.6523 6.2635
11.664 6.36172
11.6758 6.46866
11.6875 6.99844
11.6992 8.18497
11.7109 10.1313
11.7227 10.9495
11.7344 9.69171
11.7461 7.48477
11.7578 6.63892
11.7695 6.47777
11.7813 6.47737
11.793 6.52939
11.8047 6.40372
11.8164 6.36379
11.8282 6.40402
11.8399 6.47297
11.8516 6.76485
11.8633 7.32688
11.8751 9.49342
11.8868 11.7074
11.8985 12.1413
11.9102 10.2963
11.922 7.83013
11.9337 7.09961
11.9454 6.97598
11.9571 6.96267
11.9689 7.40532
11.9806 8.75223
11.9923 11.2718
12.004 12.9566
12.0158 12.5299
12.0275 10.0617
12.0392 7.97159
12.051 7.26922
12.0627 7.01073
12.0744 6.66216
12.0861 6.34742
12.0979 6.31248
12.1096 6.42216
12.1213 6.37808
12.133 6.37627
12.1448 6.49074
12.1565 6.54945
12.1682 6.47654
12.18 6.45161
12.1917 6.48999
12.2034 6.8041
12.2151 7.34014
12.2269 8.79684
12.2386 10.0942
12.2503 10.291
12.2621 9.0646
12.2738 7.47322
12.2855 6.80359
12.2972 6.49366
12.309 6.38223
12.3207 6.31962
12.3324 6.38745
12.3442 6.39531
12.3559 6.36529
12.3676 6.54506
12.3793 6.54415
12.3911 6.65116
12.4028 6.83607
12.4145 7.3307
12.4263 8.40779
12.438 9.98524
12.4497 10.4479
12.4615 9.64987
12.4732 8.07775
12.4849 7.32524
12.4967 7.36727
12.5084 7.79263
12.5201 8.12346
12.5319 7.98447
12.5436 7.21569
12.5553 6.83792
12.5671 6.60638
12.5788 6.6995
12.5905 7.24305
12.6022 7.74176
12.614 7.7726
12.6257 7.3152
12.6374 6.67569
12.6492 6.59127
12.6609 6.34768
12.6726 6.47375
12.6844 6.40974
12.6961 6.56422
12.7078 6.95894
12.7196 7.69513
12.7313 8.4762
12.7431 8.69467
12.7548 7.96666
12.7665 7.26295
12.7783 7.01408
12.79 7.00764
12.8017 7.1234
12.8135 7.58863
12.8252 8.47719
12.8369 9.31212
12.8487 9.39614
12.8604 8.65851
12.8721 7.52231
12.8839 6.77049
12.8956 6.56908
12.9073 6.53228
12.9191 6.46475
12.9308 6.45191
12.9426 6.42107
12.9543 6.40517
12.966 6.47277
12.9778 6.30264
12.9895 6.30746
13.0012 6.34024
13.013 6.31731
13.0247 6.35263
13.0365 6.37407
13.0482 6.32243
13.0599 6.29586
13.0717 6.43957
13.0834 6.58982
13.0951 6.75709
13.1069 6.97982
13.1186 7.5669
13.1304 8.00702
13.1421 7.76167
13.1538 7.27123
13.1656 6.59043
13.1773 6.3427
13.1891 6.3617
13.2008 6.45628
13.2125 6.34716
13.2243 6.32279
13.236 6.32514
13.2478 6.23673
13.2595 6.35769
13.2712 6.43635
13.283 6.37384
13.2947 6.28789
13.3065 6.39173
13.3182 6.4693
13.3299 6.58456
13.3417 6.76971
13.3534 6.95888
13.3652 7.13856
13.3769 7.1776
13.3886 7.23307
13.4004 7.12859
13.4121 6.86576
13.4239 6.78199
13.4356 6.68285
13.4474 6.59345
13.4591 6.64373
13.4708 7.01082
13.4826 7.7485
13.4943 8.46752
13.5061 8.69823
13.5178 8.36809
13.5296 7.70085
13.5413 6.95876
13.553 6.68829
13.5648 6.76447
13.5765 7.01983
13.5883 7.747
13.6 8.00023
13.6118 7.70204
13.6235 7.13696
13.6353 6.57979
13.647 6.43048
13.6588 6.42269
13.6705 6.34573
13.6822 6.46327
13.694 6.46033
13.7057 6.48486
13.7175 6.46358
13.7292 6.51399
13.741 6.43773
13.7527 6.60259
13.7645 6.82045
13.7762 7.26871
13.788 7.4788
13.7997 7.26379
13.8115 6.87268
13.8232 6.60992
13.8349 6.2778
13.8467 6.31029
13.8584 6.3212
13.8702 6.60859
13.8819 6.66817
13.8937 6.5898
13.9054 6.62525
13.9172 6.3968
13.9289 6.4033
13.9407 6.30763
13.9524 6.37408
13.9642 6.35588
13.9759 6.27342
13.9877 6.39118
13.9994 6.38043
14.0112 6.53554
14.0229 7.16043
14.0347 7.85741
14.0464 8.24643
14.0582 8.02881
14.0699 7.2714
14.0817 6.63092
14.0934 6.56614
14.1052 6.87793
14.1169 7.33969
14.1287 7.60656
14.1404 7.50842
14.1522 7.04135
14.1639 6.75618
14.1757 6.65016
14.1874 6.6945
14.1992 6.61696
14.2109 6.67578
14.2227 6.98872
14.2344 6.97133
14.2462 6.87361
14.2579 6.57409
14.2697 6.42106
14.2815 6.35703
14.2932 6.3132
14.305 6.53374
14.3167 6.35756
14.3285 6.42244
14.3402 6.43527
14.352 6.4419
14.3637 6.49053
14.3755 6.59444
14.3872 6.52639
14.399 6.45229
14.4107 6.44342
14.4225 6.64793
14.4343 6.62838
14.446 6.77587
14.4578 7.0483
14.4695 7.09215
14.4813 7.13465
14.493 7.02945
14.5048 6.88785
14.5165 7.11713
14.5283 7.46418
14.5401 7.73741
14.5518 7.75869
14.5636 7.46825
14.5753 6.84261
14.5871 6.5248
14.5988 6.49181
14.6106 6.58379
14.6224 6.59743
14.6341 6.81231
14.6459 7.2076
14.6576 7.29225
14.6694 7.1733
14.6811 6.98838
14.6929 6.80956
14.7047 6.73786
14.7164 6.96579
14.7282 7.10702
14.7399 7.37733
14.7517 7.8103
14.7635 8.12463
14.7752 8.44197
14.787 8.39636
14.7987 8.48535
14.8105 8.17989
14.8223 7.91424
14.834 7.64203
14.8458 7.3791
14.8575 7.13225
14.8693 6.7735
14.8811 6.73744
14.8928 6.58825
14.9046 6.73698
14.9163 6.73223
14.9281 6.81726
14.9399 6.72492
14.9516 6.73666
14.9634 6.76894
14.9752 7.37281
14.9869 7.84306
14.9987 8.39417
15.0104 8.497
15.0222 8.06637
15.034 7.69915
15.0457 7.56434
15.0575 7.6512
15.0693 7.62494
15.081 7.38476
15.0928 7.17765
15.1045 7.05044
15.1163 6.87729
15.1281 6.64579
15.1398 6.65851
15.1516 6.63076
15.1634 6.70145
15.1751 6.68376
15.1869 6.74229
15.1987 7.14302
15.2104 7.18212
15.2222 7.40615
15.234 7.50254
15.2457 7.35252
15.2575 7.27701
15.2693 7.01909
15.281 6.84487
15.2928 6.85371
15.3046 6.85225
15.3163 7.09605
15.3281 7.35035
15.3399 7.25024
15.3516 6.98515
15.3634 6.91957
15.3752 6.66087
15.3869 6.7398
15.3987 6.54914
15.4105 6.66667
15.4222 6.92733
15.434 6.83708
15.4458 6.71937
15.4575 6.61177
15.4693 6.60374
15.4811 6.79655
15.4928 6.92948
15.5046 6.83947
15.5164 6.60849
15.5282 6.94547
15.5399 7.13599
15.5517 7.13369
15.5635 7.39632
15.5752 7.20143
15.587 7.20963
15.5988 7.24923
15.6105 7.09012
15.6223 6.78422
15.6341 6.83545
15.6459 6.93155
15.6576 6.99065
15.6694 7.04826
15.6812 7.34399
15.6929 7.74587
15.7047 7.92183
15.7165 7.76972
15.7283 7.37026
15.74 7.20195
15.7518 7.20662
15.7636 7.26387
15.7754 7.77902
15.7871 8.04278
15.7989 7.80438
15.8107 7.53834
15.8224 7.50621
15.8342 7.40398
15.846 7.63838
15.8578 7.31513
15.8695 7.81496
15.8813 7.92964
15.8931 8.12936
15.9049 7.95993
15.9166 7.77045
15.9284 7.8981
15.9402 7.4719
15.952 7.82581
15.9637 7.98091
15.9755 7.90593
15.9873 7.67099
15.9991 7.28867
16.0109 7.00802
16.0226 7.1732
16.0344 6.93497
16.0462 7.11194
16.058 7.00926
16.0697 7.22121
16.0815 7.16184
16.0933 7.23014
16.1051 7.24353
16.1169 7.34655
16.1286 7.83977
16.1404 7.47994
16.1522 7.35011
16.164 7.30599
16.1757 7.39373
16.1875 6.75134
16.1993 7.18615
16.2111 7.23575
16.2229 6.76546
16.2346 6.30432
16.2464 6.74818
16.2582 6.76596
16.27 6.83555
16.2818 6.82683
16.2935 7.06647
16.3053 7.02699
16.3171 7.30439
16.3289 7.21448
16.3407 7.04897
16.3524 7.17694
16.3642 7.62631
16.376 7.19871
16.3878 7.59068
16.3996 7.71698
16.4114 7.9555
16.4231 8.33126
16.4349 7.95438
16.4467 8.52108
16.4585 8.1597
16.4703 7.2684
16.4821 7.79764
16.4938 8.84139
16.5056 8.57154
16.5174 7.6111
16.5292 6.89152
16.541 6.37899
16.5528 6.19224
16.5645 7.38013
16.5763 6.55935
16.5881 7.13151
16.5999 6.37752
16.6117 6.47296
16.6235 5.61283
16.6353 6.81443
16.647 7.52553
16.6588 6.54577
16.6706 6.69232
16.6824 7.62149
16.6942 7.86838
16.706 6.80375
16.7178 6.28756
16.7296 5.73844
16.7413 7.67912
16.7531 7.37394
16.7649 7.78099