File: notebooks/003.xrd_phase_identification_with_pymatgen.data/unknown_xrd_1_wl=0.1824Angst.xy
1.4991e+00 1.9785e-01
1.5116e+00 1.9419e-01
1.5240e+00 2.0789e-01
1.5365e+00 2.1234e-01
1.5490e+00 2.1674e-01
1.5615e+00 2.2158e-01
1.5739e+00 2.1542e-01
1.5864e+00 2.1201e-01
1.5989e+00 2.2155e-01
1.6114e+00 2.2292e-01
1.6238e+00 2.0623e-01
1.6363e+00 2.1404e-01
1.6488e+00 2.4012e-01
1.6613e+00 2.5944e-01
1.6737e+00 2.5546e-01
1.6862e+00 2.7270e-01
1.6987e+00 2.5691e-01
1.7112e+00 2.7692e-01
1.7236e+00 2.5806e-01
1.7361e+00 2.8411e-01
1.7486e+00 2.9902e-01
1.7611e+00 3.3128e-01
1.7736e+00 3.1502e-01
1.7860e+00 3.0289e-01
1.7985e+00 3.2821e-01
1.8110e+00 3.0667e-01
1.8235e+00 3.5247e-01
1.8359e+00 3.6002e-01
1.8484e+00 3.5980e-01
1.8609e+00 3.6405e-01
1.8734e+00 4.1448e-01
1.8858e+00 4.0195e-01
1.8983e+00 4.4729e-01
1.9108e+00 4.4213e-01
1.9233e+00 4.7168e-01
1.9357e+00 4.7629e-01
1.9482e+00 4.8248e-01
1.9607e+00 4.6900e-01
1.9732e+00 5.0757e-01
1.9857e+00 5.1754e-01
1.9981e+00 5.1041e-01
2.0106e+00 5.5385e-01
2.0231e+00 5.4782e-01
2.0356e+00 5.7322e-01
2.0480e+00 5.9438e-01
2.0605e+00 6.0034e-01
2.0730e+00 6.3110e-01
2.0855e+00 6.5215e-01
2.0979e+00 6.6362e-01
2.1104e+00 6.7682e-01
2.1229e+00 6.8272e-01
2.1354e+00 6.9779e-01
2.1478e+00 7.3994e-01
2.1603e+00 7.5339e-01
2.1728e+00 7.5483e-01
2.1853e+00 7.8552e-01
2.1978e+00 8.2192e-01
2.2102e+00 8.2964e-01
2.2227e+00 8.5446e-01
2.2352e+00 8.4664e-01
2.2477e+00 8.7473e-01
2.2601e+00 8.7038e-01
2.2726e+00 8.8299e-01
2.2851e+00 9.0139e-01
2.2976e+00 9.1016e-01
2.3100e+00 9.6518e-01
2.3225e+00 9.7274e-01
2.3350e+00 9.6648e-01
2.3475e+00 9.9096e-01
2.3600e+00 1.0139e+00
2.3724e+00 1.0304e+00
2.3849e+00 1.0286e+00
2.3974e+00 1.0313e+00
2.4099e+00 1.0541e+00
2.4223e+00 1.0551e+00
2.4348e+00 1.0853e+00
2.4473e+00 1.0825e+00
2.4598e+00 1.0875e+00
2.4723e+00 1.0995e+00
2.4847e+00 1.0910e+00
2.4972e+00 1.1038e+00
2.5097e+00 1.0911e+00
2.5222e+00 1.0897e+00
2.5346e+00 1.0587e+00
2.5471e+00 1.0910e+00
2.5596e+00 1.0812e+00
2.5721e+00 1.0987e+00
2.5846e+00 1.0929e+00
2.5970e+00 1.0953e+00
2.6095e+00 1.0747e+00
2.6220e+00 1.0588e+00
2.6345e+00 1.0660e+00
2.6469e+00 1.0440e+00
2.6594e+00 1.0395e+00
2.6719e+00 1.0149e+00
2.6844e+00 1.0170e+00
2.6969e+00 9.9679e-01
2.7093e+00 1.0058e+00
2.7218e+00 9.8938e-01
2.7343e+00 9.6909e-01
2.7468e+00 9.5048e-01
2.7592e+00 9.4043e-01
2.7717e+00 9.4819e-01
2.7842e+00 9.2432e-01
2.7967e+00 9.0184e-01
2.8092e+00 9.0423e-01
2.8216e+00 8.9425e-01
2.8341e+00 8.9528e-01
2.8466e+00 8.7217e-01
2.8591e+00 8.4253e-01
2.8716e+00 8.6618e-01
2.8840e+00 8.2299e-01
2.8965e+00 8.1641e-01
2.9090e+00 8.1601e-01
2.9215e+00 8.1356e-01
2.9339e+00 8.4296e-01
2.9464e+00 8.9915e-01
2.9589e+00 1.0222e+00
2.9714e+00 1.4652e+00
2.9839e+00 3.1019e+00
2.9963e+00 6.5858e+00
3.0088e+00 5.8615e+00
3.0213e+00 2.4721e+00
3.0338e+00 1.2514e+00
3.0463e+00 9.1635e-01
3.0587e+00 7.9422e-01
3.0712e+00 7.2710e-01
3.0837e+00 6.8169e-01
3.0962e+00 6.8563e-01
3.1087e+00 6.6015e-01
3.1211e+00 6.4315e-01
3.1336e+00 6.4750e-01
3.1461e+00 6.2318e-01
3.1586e+00 6.1310e-01
3.1710e+00 5.9603e-01
3.1835e+00 6.0110e-01
3.1960e+00 6.0696e-01
3.2085e+00 5.6241e-01
3.2210e+00 5.8157e-01
3.2334e+00 5.7068e-01
3.2459e+00 5.5494e-01
3.2584e+00 5.4744e-01
3.2709e+00 5.2469e-01
3.2834e+00 5.3072e-01
3.2958e+00 5.3890e-01
3.3083e+00 5.2256e-01
3.3208e+00 5.4074e-01
3.3333e+00 5.2839e-01
3.3458e+00 5.4326e-01
3.3582e+00 5.0660e-01
3.3707e+00 5.0315e-01
3.3832e+00 5.0430e-01
3.3957e+00 4.9766e-01
3.4082e+00 5.1213e-01
3.4206e+00 4.9261e-01
3.4331e+00 4.8972e-01
3.4456e+00 4.9691e-01
3.4581e+00 5.1053e-01
3.4706e+00 4.8913e-01
3.4830e+00 4.8686e-01
3.4955e+00 4.9555e-01
3.5080e+00 4.8325e-01
3.5205e+00 4.6788e-01
3.5330e+00 4.7881e-01
3.5454e+00 4.8528e-01
3.5579e+00 4.6806e-01
3.5704e+00 4.6773e-01
3.5829e+00 4.8324e-01
3.5954e+00 4.6835e-01
3.6079e+00 4.7233e-01
3.6203e+00 4.6306e-01
3.6328e+00 4.8552e-01
3.6453e+00 4.4248e-01
3.6578e+00 4.6627e-01
3.6703e+00 4.5709e-01
3.6827e+00 4.5370e-01
3.6952e+00 4.5250e-01
3.7077e+00 4.4606e-01
3.7202e+00 4.6693e-01
3.7327e+00 4.4999e-01
3.7451e+00 4.4867e-01
3.7576e+00 4.3686e-01
3.7701e+00 4.4862e-01
3.7826e+00 4.5255e-01
3.7951e+00 4.5148e-01
3.8076e+00 4.5085e-01
3.8200e+00 4.4206e-01
3.8325e+00 4.2118e-01
3.8450e+00 4.3086e-01
3.8575e+00 4.1622e-01
3.8700e+00 4.0464e-01
3.8824e+00 3.9995e-01
3.8949e+00 4.0191e-01
3.9074e+00 4.1039e-01
3.9199e+00 3.9939e-01
3.9324e+00 3.8654e-01
3.9449e+00 4.1249e-01
3.9573e+00 3.8850e-01
3.9698e+00 4.0229e-01
3.9823e+00 3.9765e-01
3.9948e+00 4.2093e-01
4.0073e+00 4.3767e-01
4.0197e+00 4.5920e-01
4.0322e+00 5.3806e-01
4.0447e+00 6.5412e-01
4.0572e+00 9.5807e-01
4.0697e+00 1.9560e+00
4.0822e+00 5.4366e+00
4.0946e+00 1.0047e+01
4.1071e+00 7.1126e+00
4.1196e+00 2.5885e+00
4.1321e+00 1.1222e+00
4.1446e+00 6.7781e-01
4.1571e+00 5.3369e-01
4.1695e+00 4.6685e-01
4.1820e+00 4.1362e-01
4.1945e+00 4.0102e-01
4.2070e+00 3.8908e-01
4.2195e+00 3.9489e-01
4.2320e+00 3.9603e-01
4.2444e+00 4.0156e-01
4.2569e+00 4.0129e-01
4.2694e+00 3.9841e-01
4.2819e+00 4.0886e-01
4.2944e+00 4.3307e-01
4.3069e+00 4.4155e-01
4.3193e+00 4.5443e-01
4.3318e+00 4.7878e-01
4.3443e+00 5.5937e-01
4.3568e+00 7.5212e-01
4.3693e+00 1.4226e+00
4.3818e+00 3.3548e+00
4.3942e+00 4.5652e+00
4.4067e+00 2.6009e+00
4.4192e+00 1.1288e+00
4.4317e+00 7.2384e-01
4.4442e+00 5.7382e-01
4.4567e+00 5.4700e-01
4.4691e+00 5.2325e-01
4.4816e+00 5.5336e-01
4.4941e+00 5.5339e-01
4.5066e+00 6.0712e-01
4.5191e+00 6.9293e-01
4.5316e+00 8.0063e-01
4.5440e+00 1.0289e+00
4.5565e+00 1.4169e+00
4.5690e+00 2.4078e+00
4.5815e+00 5.4441e+00
4.5940e+00 1.6260e+01
4.6065e+00 4.1815e+01
4.6190e+00 4.8541e+01
4.6314e+00 2.5219e+01
4.6439e+00 1.3530e+01
4.6564e+00 1.7000e+01
4.6689e+00 2.2713e+01
4.6814e+00 1.8189e+01
4.6939e+00 8.9008e+00
4.7064e+00 3.8524e+00
4.7188e+00 1.9773e+00
4.7313e+00 1.2609e+00
4.7438e+00 9.6766e-01
4.7563e+00 7.9630e-01
4.7688e+00 6.9195e-01
4.7813e+00 6.5456e-01
4.7937e+00 6.3218e-01
4.8062e+00 6.6028e-01
4.8187e+00 7.1021e-01
4.8312e+00 7.4057e-01
4.8437e+00 7.0767e-01
4.8562e+00 6.9220e-01
4.8687e+00 7.1114e-01
4.8811e+00 7.4220e-01
4.8936e+00 7.9844e-01
4.9061e+00 9.0582e-01
4.9186e+00 1.0911e+00
4.9311e+00 1.4056e+00
4.9436e+00 2.0319e+00
4.9561e+00 3.2356e+00
4.9686e+00 6.3622e+00
4.9810e+00 1.5918e+01
4.9935e+00 4.4429e+01
5.0060e+00 8.2604e+01
5.0185e+00 6.8532e+01
5.0310e+00 2.7748e+01
5.0435e+00 1.0141e+01
5.0560e+00 4.6222e+00
5.0684e+00 2.7382e+00
5.0809e+00 2.1104e+00
5.0934e+00 2.1291e+00
5.1059e+00 3.2868e+00
5.1184e+00 7.6876e+00
5.1309e+00 1.8159e+01
5.1434e+00 2.1075e+01
5.1559e+00 1.0774e+01
5.1683e+00 3.9503e+00
5.1808e+00 1.8254e+00
5.1933e+00 1.0779e+00
5.2058e+00 8.1610e-01
5.2183e+00 7.1158e-01
5.2308e+00 6.6965e-01
5.2433e+00 6.3637e-01
5.2558e+00 6.3796e-01
5.2682e+00 6.8043e-01
5.2807e+00 8.1664e-01
5.2932e+00 1.1884e+00
5.3057e+00 2.4289e+00
5.3182e+00 5.4220e+00
5.3307e+00 7.0921e+00
5.3432e+00 4.4086e+00
5.3557e+00 1.8938e+00
5.3681e+00 9.9231e-01
5.3806e+00 6.7954e-01
5.3931e+00 5.5631e-01
5.4056e+00 5.0987e-01
5.4181e+00 4.9661e-01
5.4306e+00 4.7650e-01
5.4431e+00 4.6805e-01
5.4556e+00 4.4864e-01
5.4681e+00 4.5398e-01
5.4805e+00 4.3717e-01
5.4930e+00 4.4049e-01
5.5055e+00 4.3314e-01
5.5180e+00 4.5105e-01
5.5305e+00 4.2511e-01
5.5430e+00 4.4049e-01
5.5555e+00 4.4864e-01
5.5680e+00 4.3102e-01
5.5805e+00 4.3735e-01
5.5929e+00 4.4597e-01
5.6054e+00 4.6158e-01
5.6179e+00 4.7232e-01
5.6304e+00 4.8100e-01
5.6429e+00 5.0969e-01
5.6554e+00 5.4089e-01
5.6679e+00 5.6641e-01
5.6804e+00 6.3516e-01
5.6929e+00 7.4389e-01
5.7054e+00 9.1273e-01
5.7178e+00 1.2503e+00
5.7303e+00 1.9315e+00
5.7428e+00 3.6083e+00
5.7553e+00 7.9329e+00
5.7678e+00 1.7956e+01
5.7803e+00 2.8679e+01
5.7928e+00 2.5723e+01
5.8053e+00 1.3376e+01
5.8178e+00 5.6626e+00
5.8303e+00 2.6798e+00
5.8428e+00 1.5814e+00
5.8552e+00 1.1304e+00
5.8677e+00 9.3536e-01
5.8802e+00 9.5800e-01
5.8927e+00 1.2110e+00
5.9052e+00 2.0336e+00
5.9177e+00 4.1141e+00
5.9302e+00 6.8609e+00
5.9427e+00 6.5637e+00
5.9552e+00 3.6617e+00
5.9677e+00 1.9400e+00
5.9802e+00 1.7799e+00
5.9926e+00 3.2668e+00
6.0051e+00 5.7619e+00
6.0176e+00 5.0790e+00
6.0301e+00 2.3711e+00
6.0426e+00 1.0815e+00
6.0551e+00 6.9781e-01
6.0676e+00 5.4369e-01
6.0801e+00 5.0322e-01
6.0926e+00 4.6505e-01
6.1051e+00 4.4719e-01
6.1176e+00 4.3399e-01
6.1301e+00 4.1814e-01
6.1426e+00 4.1346e-01
6.1550e+00 4.1549e-01
6.1675e+00 4.1894e-01
6.1800e+00 4.1366e-01
6.1925e+00 3.9400e-01
6.2050e+00 4.1823e-01
6.2175e+00 4.1613e-01
6.2300e+00 4.1264e-01
6.2425e+00 4.1483e-01
6.2550e+00 4.1612e-01
6.2675e+00 4.0839e-01
6.2800e+00 4.1269e-01
6.2925e+00 4.1856e-01
6.3050e+00 4.0944e-01
6.3175e+00 4.0846e-01
6.3300e+00 4.0419e-01
6.3424e+00 4.3079e-01
6.3549e+00 4.2982e-01
6.3674e+00 4.2861e-01
6.3799e+00 4.2260e-01
6.3924e+00 4.3194e-01
6.4049e+00 4.4007e-01
6.4174e+00 4.5588e-01
6.4299e+00 4.7966e-01
6.4424e+00 5.0860e-01
6.4549e+00 5.5937e-01
6.4674e+00 6.5267e-01
6.4799e+00 8.5380e-01
6.4924e+00 1.3661e+00
6.5049e+00 3.0883e+00
6.5174e+00 7.7441e+00
6.5299e+00 1.1708e+01
6.5424e+00 8.2715e+00
6.5549e+00 3.4688e+00
6.5673e+00 1.7661e+00
6.5798e+00 1.5806e+00
6.5923e+00 2.0901e+00
6.6048e+00 2.6941e+00
6.6173e+00 2.4692e+00
6.6298e+00 1.6253e+00
6.6423e+00 1.0116e+00
6.6548e+00 6.9554e-01
6.6673e+00 5.7401e-01
6.6798e+00 5.2778e-01
6.6923e+00 4.9291e-01
6.7048e+00 4.7768e-01
6.7173e+00 4.7919e-01
6.7298e+00 4.9579e-01
6.7423e+00 5.7409e-01
6.7548e+00 7.2350e-01
6.7673e+00 7.2864e-01
6.7798e+00 6.0999e-01
6.7923e+00 5.0337e-01
6.8048e+00 4.8192e-01
6.8173e+00 4.5934e-01
6.8298e+00 4.6051e-01
6.8423e+00 4.7837e-01
6.8548e+00 4.8076e-01
6.8673e+00 5.2094e-01
6.8798e+00 6.0566e-01
6.8922e+00 8.5278e-01
6.9047e+00 1.2414e+00
6.9172e+00 1.5135e+00
6.9297e+00 1.3305e+00
6.9422e+00 8.5232e-01
6.9547e+00 5.9606e-01
6.9672e+00 5.1632e-01
6.9797e+00 4.9292e-01
6.9922e+00 4.8257e-01
7.0047e+00 4.7631e-01
7.0172e+00 4.7458e-01
7.0297e+00 4.8325e-01
7.0422e+00 4.8348e-01
7.0547e+00 4.7648e-01
7.0672e+00 5.0573e-01
7.0797e+00 4.8064e-01
7.0922e+00 4.9169e-01
7.1047e+00 4.8411e-01
7.1172e+00 4.8356e-01
7.1297e+00 4.9365e-01
7.1422e+00 4.9187e-01
7.1547e+00 4.9722e-01
7.1672e+00 4.9089e-01
7.1797e+00 4.9861e-01
7.1922e+00 4.9549e-01
7.2047e+00 4.9446e-01
7.2172e+00 5.0598e-01
7.2297e+00 5.0055e-01
7.2422e+00 5.0557e-01
7.2547e+00 5.1459e-01
7.2672e+00 5.1816e-01
7.2797e+00 5.1672e-01
7.2922e+00 5.1552e-01
7.3047e+00 5.3234e-01
7.3172e+00 5.3351e-01
7.3297e+00 5.4515e-01
7.3422e+00 5.4689e-01
7.3547e+00 5.6319e-01
7.3672e+00 5.7038e-01
7.3797e+00 6.0734e-01
7.3922e+00 6.7319e-01
7.4047e+00 8.3743e-01
7.4172e+00 1.2957e+00
7.4297e+00 2.7321e+00
7.4422e+00 4.7490e+00
7.4547e+00 4.5578e+00
7.4672e+00 2.5273e+00
7.4797e+00 1.3478e+00
7.4922e+00 1.0647e+00
7.5047e+00 1.2743e+00
7.5172e+00 2.1900e+00
7.5297e+00 4.1929e+00
7.5422e+00 5.4421e+00
7.5547e+00 4.0161e+00
7.5672e+00 2.2674e+00
7.5797e+00 1.8854e+00
7.5922e+00 3.1647e+00
7.6047e+00 6.2144e+00
7.6172e+00 7.4493e+00
7.6297e+00 4.7281e+00
7.6422e+00 2.1129e+00
7.6547e+00 1.1153e+00
7.6672e+00 8.1396e-01
7.6797e+00 7.0657e-01
7.6922e+00 6.4984e-01
7.7048e+00 6.0815e-01
7.7173e+00 5.9395e-01
7.7298e+00 5.6634e-01
7.7423e+00 5.7140e-01
7.7548e+00 5.5730e-01
7.7673e+00 5.6174e-01
7.7798e+00 5.6254e-01
7.7923e+00 5.6597e-01
7.8048e+00 5.7676e-01
7.8173e+00 6.5363e-01
7.8298e+00 6.9958e-01
7.8423e+00 6.6532e-01
7.8548e+00 6.0319e-01
7.8673e+00 5.6630e-01
7.8798e+00 5.5117e-01
7.8923e+00 5.5758e-01
7.9048e+00 5.6383e-01
7.9173e+00 5.6209e-01
7.9298e+00 5.6810e-01
7.9423e+00 5.7583e-01
7.9548e+00 5.9431e-01
7.9673e+00 5.9136e-01
7.9798e+00 6.2890e-01
7.9923e+00 6.4845e-01
8.0048e+00 6.9266e-01
8.0174e+00 7.5923e-01
8.0299e+00 8.9543e-01
8.0424e+00 1.1277e+00
8.0549e+00 1.6066e+00
8.0674e+00 2.5636e+00
8.0799e+00 4.0402e+00
8.0924e+00 5.2582e+00
8.1049e+00 5.0772e+00
8.1174e+00 3.7808e+00
8.1299e+00 2.7318e+00
8.1424e+00 2.6205e+00
8.1549e+00 3.9209e+00
8.1674e+00 7.6178e+00
8.1799e+00 1.2037e+01
8.1924e+00 1.1966e+01
8.2049e+00 7.4787e+00
8.2175e+00 3.5980e+00
8.2300e+00 1.8794e+00
8.2425e+00 1.2055e+00
8.2550e+00 9.3270e-01
8.2675e+00 7.9078e-01
8.2800e+00 7.1326e-01
8.2925e+00 6.8759e-01
8.3050e+00 6.6885e-01
8.3175e+00 6.6574e-01
8.3300e+00 6.8793e-01
8.3425e+00 7.2787e-01
8.3550e+00 8.3824e-01
8.3675e+00 1.1803e+00
8.3800e+00 2.0135e+00
8.3926e+00 3.2188e+00
8.4051e+00 3.5034e+00
8.4176e+00 2.7476e+00
8.4301e+00 2.5720e+00
8.4426e+00 2.9094e+00
8.4551e+00 2.6078e+00
8.4676e+00 2.1486e+00
8.4801e+00 1.8847e+00
8.4926e+00 1.3620e+00
8.5051e+00 8.8629e-01
8.5176e+00 6.9858e-01
8.5302e+00 6.2908e-01
8.5427e+00 5.8197e-01
8.5552e+00 5.7416e-01
8.5677e+00 5.6587e-01
8.5802e+00 5.4711e-01
8.5927e+00 5.5501e-01
8.6052e+00 5.5395e-01
8.6177e+00 5.4636e-01
8.6302e+00 5.4204e-01
8.6427e+00 5.3953e-01
8.6552e+00 5.4783e-01
8.6678e+00 5.2876e-01
8.6803e+00 5.4386e-01
8.6928e+00 5.3386e-01
8.7053e+00 5.5438e-01
8.7178e+00 5.4744e-01
8.7303e+00 5.6572e-01
8.7428e+00 6.0316e-01
8.7553e+00 6.8938e-01
8.7678e+00 8.6905e-01
8.7804e+00 1.1926e+00
8.7929e+00 1.5520e+00
8.8054e+00 1.7497e+00
8.8179e+00 2.3906e+00
8.8304e+00 4.2360e+00
8.8429e+00 5.9231e+00
8.8554e+00 5.1140e+00
8.8679e+00 2.8816e+00
8.8805e+00 1.4424e+00
8.8930e+00 9.0383e-01
8.9055e+00 6.7821e-01
8.9180e+00 5.8884e-01
8.9305e+00 5.5589e-01
8.9430e+00 5.1726e-01
8.9555e+00 5.0559e-01
8.9680e+00 4.9833e-01
8.9806e+00 5.1239e-01
8.9931e+00 5.0522e-01
9.0056e+00 5.3220e-01
9.0181e+00 5.6647e-01
9.0306e+00 5.4599e-01
9.0431e+00 5.2429e-01
9.0556e+00 4.8480e-01
9.0681e+00 4.9062e-01
9.0807e+00 5.2109e-01
9.0932e+00 6.2040e-01
9.1057e+00 8.3278e-01
9.1182e+00 1.0338e+00
9.1307e+00 9.7884e-01
9.1432e+00 7.3770e-01
9.1557e+00 6.0464e-01
9.1683e+00 5.7361e-01
9.1808e+00 6.2851e-01
9.1933e+00 7.7013e-01
9.2058e+00 1.1153e+00
9.2183e+00 1.9999e+00
9.2308e+00 3.3571e+00
9.2434e+00 3.8567e+00
9.2559e+00 2.8595e+00
9.2684e+00 1.7662e+00
9.2809e+00 1.4317e+00
9.2934e+00 1.6227e+00
9.3059e+00 1.8511e+00
9.3184e+00 2.1408e+00
9.3310e+00 2.7334e+00
9.3435e+00 3.6573e+00
9.3560e+00 4.2220e+00
9.3685e+00 3.8606e+00
9.3810e+00 2.8534e+00
9.3935e+00 1.8204e+00
9.4061e+00 1.1527e+00
9.4186e+00 8.3940e-01
9.4311e+00 6.9090e-01
9.4436e+00 6.2806e-01
9.4561e+00 6.0386e-01
9.4686e+00 6.1689e-01
9.4812e+00 6.5705e-01
9.4937e+00 8.1189e-01
9.5062e+00 1.1708e+00
9.5187e+00 1.6032e+00
9.5312e+00 1.7274e+00
9.5438e+00 1.7331e+00
9.5563e+00 2.2998e+00
9.5688e+00 4.1251e+00
9.5813e+00 8.0915e+00
9.5938e+00 1.2965e+01
9.6063e+00 1.3944e+01
9.6189e+00 9.8982e+00
9.6314e+00 5.1784e+00
9.6439e+00 2.6846e+00
9.6564e+00 1.7068e+00
9.6689e+00 1.3282e+00
9.6815e+00 1.2559e+00
9.6940e+00 1.4563e+00
9.7065e+00 1.6115e+00
9.7190e+00 1.3370e+00
9.7315e+00 9.0023e-01
9.7441e+00 6.7208e-01
9.7566e+00 5.9748e-01
9.7691e+00 5.7527e-01
9.7816e+00 6.0087e-01
9.7941e+00 6.6295e-01
9.8067e+00 8.1599e-01
9.8192e+00 1.1806e+00
9.8317e+00 2.0258e+00
9.8442e+00 3.1276e+00
9.8567e+00 3.4168e+00
9.8693e+00 2.5467e+00
9.8818e+00 1.5099e+00
9.8943e+00 9.3120e-01
9.9068e+00 6.9189e-01
9.9193e+00 5.9495e-01
9.9319e+00 5.6702e-01
9.9444e+00 5.6488e-01
9.9569e+00 5.9469e-01
9.9694e+00 6.8312e-01
9.9820e+00 8.6405e-01
9.9945e+00 1.3847e+00
1.0007e+01 2.7349e+00
1.0020e+01 5.1106e+00
1.0032e+01 6.6237e+00
1.0045e+01 5.4664e+00
1.0057e+01 3.0635e+00
1.0070e+01 1.5192e+00
1.0082e+01 8.9392e-01
1.0095e+01 6.5190e-01
1.0107e+01 5.6298e-01
1.0120e+01 5.1241e-01
1.0132e+01 4.7730e-01
1.0145e+01 4.6892e-01
1.0157e+01 4.6531e-01
1.0170e+01 4.5869e-01
1.0182e+01 4.5371e-01
1.0195e+01 4.5223e-01
1.0207e+01 4.5299e-01
1.0220e+01 4.7286e-01
1.0232e+01 5.0208e-01
1.0245e+01 5.9545e-01
1.0257e+01 8.5315e-01
1.0270e+01 1.3783e+00
1.0283e+01 2.0775e+00
1.0295e+01 2.2363e+00
1.0308e+01 1.6607e+00
1.0320e+01 1.0044e+00
1.0333e+01 6.7956e-01
1.0345e+01 5.3587e-01
1.0358e+01 5.0012e-01
1.0370e+01 5.1600e-01
1.0383e+01 5.3844e-01
1.0395e+01 6.1715e-01
1.0408e+01 7.4528e-01
1.0420e+01 9.9439e-01
1.0433e+01 1.3979e+00
1.0445e+01 1.8980e+00
1.0458e+01 2.2861e+00
1.0470e+01 2.4904e+00
1.0483e+01 2.5708e+00
1.0495e+01 2.3018e+00
1.0508e+01 1.6174e+00
1.0521e+01 9.9035e-01
1.0533e+01 6.6730e-01
1.0546e+01 5.3240e-01
1.0558e+01 4.8754e-01
1.0571e+01 4.5216e-01
1.0583e+01 4.3483e-01
1.0596e+01 4.4722e-01
1.0608e+01 4.6212e-01
1.0621e+01 5.1976e-01
1.0633e+01 5.9527e-01
1.0646e+01 8.0323e-01
1.0658e+01 1.0588e+00
1.0671e+01 1.1434e+00
1.0683e+01 9.6449e-01
1.0696e+01 6.9405e-01
1.0708e+01 5.3078e-01
1.0721e+01 4.5331e-01
1.0734e+01 4.3429e-01
1.0746e+01 4.2187e-01
1.0759e+01 4.1195e-01
1.0771e+01 4.1178e-01
1.0784e+01 4.0362e-01
1.0796e+01 3.8181e-01
1.0809e+01 3.7951e-01
1.0821e+01 3.8290e-01
1.0834e+01 3.8200e-01
1.0846e+01 3.7729e-01
1.0859e+01 3.8599e-01
1.0871e+01 3.8019e-01
1.0884e+01 3.8388e-01
1.0896e+01 3.7468e-01
1.0909e+01 3.9043e-01
1.0921e+01 3.7820e-01
1.0934e+01 3.8190e-01
1.0947e+01 3.8259e-01
1.0959e+01 3.7364e-01
1.0972e+01 3.7709e-01
1.0984e+01 3.7382e-01
1.0997e+01 3.8035e-01
1.1009e+01 3.7593e-01
1.1022e+01 3.6996e-01
1.1034e+01 3.7103e-01
1.1047e+01 3.7491e-01
1.1059e+01 3.8679e-01
1.1072e+01 4.0026e-01
1.1084e+01 4.0939e-01
1.1097e+01 4.2705e-01
1.1109e+01 4.2954e-01
1.1122e+01 4.3023e-01
1.1135e+01 4.1560e-01
1.1147e+01 4.0925e-01
1.1160e+01 4.1860e-01
1.1172e+01 4.7279e-01
1.1185e+01 5.9021e-01
1.1197e+01 6.8645e-01
1.1210e+01 6.6693e-01
1.1222e+01 5.3806e-01
1.1235e+01 4.4947e-01
1.1247e+01 4.1536e-01
1.1260e+01 4.0235e-01
1.1272e+01 4.0174e-01
1.1285e+01 3.9907e-01
1.1297e+01 3.9452e-01
1.1310e+01 3.9283e-01
1.1323e+01 4.1219e-01
1.1335e+01 4.0910e-01
1.1348e+01 4.1320e-01
1.1360e+01 4.1540e-01
1.1373e+01 4.5914e-01
1.1385e+01 5.3685e-01
1.1398e+01 6.4410e-01
1.1410e+01 7.0316e-01
1.1423e+01 6.8260e-01
1.1435e+01 7.0715e-01
1.1448e+01 7.7457e-01
1.1460e+01 8.0466e-01
1.1473e+01 7.7714e-01
1.1486e+01 7.3534e-01
1.1498e+01 7.6543e-01
1.1511e+01 9.9660e-01
1.1523e+01 1.4246e+00
1.1536e+01 1.7326e+00
1.1548e+01 1.8405e+00
1.1561e+01 2.0094e+00
1.1573e+01 2.3335e+00
1.1586e+01 2.5113e+00
1.1598e+01 2.3515e+00
1.1611e+01 2.4182e+00
1.1623e+01 2.9659e+00
1.1636e+01 3.2537e+00
1.1649e+01 2.6778e+00
1.1661e+01 1.6895e+00
1.1674e+01 9.7544e-01
1.1686e+01 6.5347e-01
1.1699e+01 5.2660e-01
1.1711e+01 4.7357e-01
1.1724e+01 4.5234e-01
1.1736e+01 4.2391e-01
1.1749e+01 4.3174e-01
1.1761e+01 4.2888e-01
1.1774e+01 4.3158e-01
1.1786e+01 4.4034e-01
1.1799e+01 4.4848e-01
1.1812e+01 4.2981e-01
1.1824e+01 4.5426e-01
1.1837e+01 4.7455e-01
1.1849e+01 5.2862e-01
1.1862e+01 6.6543e-01
1.1874e+01 9.1789e-01
1.1887e+01 1.1680e+00
1.1899e+01 1.3428e+00
1.1912e+01 1.5808e+00
1.1924e+01 1.9931e+00
1.1937e+01 2.2057e+00
1.1950e+01 1.8645e+00
1.1962e+01 1.2387e+00
1.1975e+01 7.8201e-01
1.1987e+01 5.7856e-01
1.2000e+01 4.9462e-01
1.2012e+01 5.1534e-01
1.2025e+01 5.6506e-01
1.2037e+01 5.9875e-01
1.2050e+01 5.5232e-01
1.2062e+01 4.8748e-01
1.2075e+01 4.2806e-01
1.2087e+01 4.1776e-01
1.2100e+01 4.1214e-01
1.2113e+01 4.2251e-01
1.2125e+01 4.1442e-01
1.2138e+01 4.2109e-01
1.2150e+01 4.4557e-01
1.2163e+01 5.1046e-01
1.2175e+01 6.7922e-01
1.2188e+01 1.0236e+00
1.2200e+01 1.2834e+00
1.2213e+01 1.2133e+00
1.2225e+01 8.9306e-01
1.2238e+01 6.3462e-01
1.2251e+01 5.3865e-01
1.2263e+01 5.1331e-01
1.2276e+01 5.3448e-01
1.2288e+01 6.2921e-01
1.2301e+01 7.9830e-01
1.2313e+01 1.0081e+00
1.2326e+01 1.1498e+00
1.2338e+01 1.2944e+00
1.2351e+01 1.6548e+00
1.2363e+01 2.1738e+00
1.2376e+01 2.5387e+00
1.2389e+01 2.4802e+00
1.2401e+01 2.0509e+00
1.2414e+01 1.5202e+00
1.2426e+01 1.1131e+00
1.2439e+01 8.6505e-01
1.2451e+01 7.1691e-01
1.2464e+01 6.1752e-01
1.2476e+01 5.7056e-01
1.2489e+01 5.3267e-01
1.2502e+01 5.2482e-01
1.2514e+01 5.1347e-01
1.2527e+01 5.3597e-01
1.2539e+01 5.6679e-01
1.2552e+01 6.1555e-01
1.2564e+01 7.5924e-01
1.2577e+01 1.0911e+00
1.2589e+01 1.8259e+00
1.2602e+01 3.1003e+00
1.2614e+01 4.5692e+00
1.2627e+01 5.2219e+00
1.2640e+01 4.4529e+00
1.2652e+01 2.9093e+00
1.2665e+01 1.6394e+00
1.2677e+01 1.0163e+00
1.2690e+01 7.3713e-01
1.2702e+01 6.2385e-01
1.2715e+01 5.5609e-01
1.2727e+01 5.4130e-01
1.2740e+01 5.1401e-01
1.2753e+01 5.0136e-01
1.2765e+01 4.9681e-01
1.2778e+01 4.9681e-01
1.2790e+01 5.1128e-01
1.2803e+01 5.0216e-01
1.2815e+01 5.3253e-01
1.2828e+01 5.4931e-01
1.2840e+01 5.7678e-01
1.2853e+01 6.3064e-01
1.2866e+01 6.9431e-01
1.2878e+01 7.6019e-01
1.2891e+01 8.0382e-01
1.2903e+01 9.2800e-01
1.2916e+01 1.3053e+00
1.2928e+01 2.1458e+00
1.2941e+01 3.5792e+00
1.2953e+01 4.9048e+00
1.2966e+01 5.0222e+00
1.2979e+01 3.8718e+00
1.2991e+01 2.4050e+00
1.3004e+01 1.4349e+00
1.3016e+01 9.7503e-01
1.3029e+01 8.1201e-01
1.3041e+01 8.2393e-01
1.3054e+01 1.0488e+00
1.3066e+01 1.3840e+00
1.3079e+01 1.6179e+00
1.3092e+01 1.5735e+00
1.3104e+01 1.3730e+00
1.3117e+01 1.2092e+00
1.3129e+01 1.1776e+00
1.3142e+01 1.1137e+00
1.3154e+01 9.7284e-01
1.3167e+01 7.9362e-01
1.3179e+01 7.7358e-01
1.3192e+01 9.0195e-01
1.3205e+01 1.0537e+00
1.3217e+01 1.0513e+00
1.3230e+01 9.3512e-01
1.3242e+01 8.2993e-01
1.3255e+01 8.0533e-01
1.3267e+01 8.7788e-01
1.3280e+01 1.0617e+00
1.3292e+01 1.2396e+00
1.3305e+01 1.2153e+00
1.3318e+01 9.9862e-01
1.3330e+01 7.3742e-01
1.3343e+01 5.8184e-01
1.3355e+01 4.8374e-01
1.3368e+01 4.5751e-01
1.3380e+01 4.3484e-01
1.3393e+01 4.0421e-01
1.3405e+01 4.1481e-01
1.3418e+01 4.1407e-01
1.3431e+01 4.0565e-01
1.3443e+01 4.1618e-01
1.3456e+01 4.2033e-01
1.3468e+01 4.1706e-01
1.3481e+01 4.2948e-01
1.3493e+01 4.1681e-01
1.3506e+01 4.0856e-01
1.3519e+01 4.0996e-01
1.3531e+01 4.1565e-01
1.3544e+01 4.3037e-01
1.3556e+01 4.2114e-01
1.3569e+01 4.0058e-01
1.3581e+01 3.9178e-01
1.3594e+01 3.8873e-01
1.3606e+01 3.9783e-01
1.3619e+01 4.0263e-01
1.3632e+01 4.1368e-01
1.3644e+01 3.9734e-01
1.3657e+01 4.0611e-01
1.3669e+01 4.4863e-01
1.3682e+01 5.4533e-01
1.3694e+01 6.4249e-01
1.3707e+01 7.1989e-01
1.3720e+01 7.1706e-01
1.3732e+01 6.3947e-01
1.3745e+01 5.5271e-01
1.3757e+01 4.7557e-01
1.3770e+01 4.5017e-01
1.3782e+01 4.5296e-01
1.3795e+01 4.7953e-01
1.3807e+01 5.8056e-01
1.3820e+01 7.2461e-01
1.3833e+01 9.1255e-01
1.3845e+01 1.1786e+00
1.3858e+01 1.5811e+00
1.3870e+01 1.8970e+00
1.3883e+01 1.8589e+00
1.3895e+01 1.4517e+00
1.3908e+01 9.8322e-01
1.3921e+01 6.9841e-01
1.3933e+01 5.5228e-01
1.3946e+01 5.1757e-01
1.3958e+01 5.0946e-01
1.3971e+01 5.2953e-01
1.3983e+01 5.7528e-01
1.3996e+01 6.7215e-01
1.4009e+01 8.0560e-01
1.4021e+01 9.7632e-01
1.4034e+01 1.1190e+00
1.4046e+01 1.2105e+00
1.4059e+01 1.1537e+00
1.4071e+01 1.0054e+00
1.4084e+01 8.3201e-01
1.4097e+01 6.9215e-01
1.4109e+01 6.1298e-01
1.4122e+01 5.7910e-01
1.4134e+01 5.9910e-01
1.4147e+01 6.8757e-01
1.4159e+01 9.1666e-01
1.4172e+01 1.3765e+00
1.4185e+01 2.0738e+00
1.4197e+01 2.5844e+00
1.4210e+01 2.4501e+00
1.4222e+01 1.8212e+00
1.4235e+01 1.1696e+00
1.4247e+01 7.8268e-01
1.4260e+01 5.9476e-01
1.4273e+01 4.9659e-01
1.4285e+01 4.6149e-01
1.4298e+01 4.3270e-01
1.4310e+01 4.2260e-01
1.4323e+01 4.1162e-01
1.4335e+01 3.9684e-01
1.4348e+01 3.9054e-01
1.4361e+01 3.9733e-01
1.4373e+01 3.9260e-01
1.4386e+01 3.8407e-01
1.4398e+01 3.9499e-01
1.4411e+01 3.8626e-01
1.4423e+01 3.8863e-01
1.4436e+01 3.9810e-01
1.4449e+01 4.1004e-01
1.4461e+01 4.1201e-01
1.4474e+01 4.2257e-01
1.4486e+01 4.8600e-01
1.4499e+01 6.0999e-01
1.4511e+01 7.6411e-01
1.4524e+01 9.0631e-01
1.4537e+01 9.8166e-01
1.4549e+01 1.0544e+00
1.4562e+01 1.0929e+00
1.4574e+01 1.0377e+00
1.4587e+01 8.6580e-01
1.4599e+01 6.7325e-01
1.4612e+01 5.2741e-01
1.4625e+01 4.5078e-01
1.4637e+01 4.1243e-01
1.4650e+01 3.9506e-01
1.4662e+01 3.8835e-01
1.4675e+01 4.0675e-01
1.4688e+01 4.0895e-01
1.4700e+01 4.2156e-01
1.4713e+01 4.3852e-01
1.4725e+01 4.6931e-01
1.4738e+01 4.8602e-01
1.4750e+01 5.0526e-01
1.4763e+01 5.7045e-01
1.4776e+01 6.6062e-01
1.4788e+01 7.5622e-01
1.4801e+01 8.1546e-01
1.4813e+01 8.3861e-01
1.4826e+01 7.9394e-01
1.4838e+01 6.8892e-01
1.4851e+01 6.2046e-01
1.4864e+01 5.2815e-01
1.4876e+01 4.8662e-01
1.4889e+01 4.7435e-01
1.4901e+01 4.8302e-01
1.4914e+01 4.7746e-01
1.4927e+01 4.7178e-01
1.4939e+01 4.7656e-01
1.4952e+01 4.9786e-01
1.4964e+01 5.0984e-01
1.4977e+01 5.1841e-01
1.4989e+01 5.4678e-01
1.5002e+01 6.0735e-01
1.5015e+01 7.0207e-01
1.5027e+01 9.1356e-01
1.5040e+01 1.3356e+00
1.5052e+01 1.8747e+00
1.5065e+01 2.1866e+00
1.5078e+01 2.0354e+00
1.5090e+01 1.6043e+00
1.5103e+01 1.1643e+00
1.5115e+01 8.6637e-01
1.5128e+01 6.9079e-01
1.5140e+01 5.8724e-01
1.5153e+01 5.0106e-01
1.5166e+01 4.6953e-01
1.5178e+01 4.4115e-01
1.5191e+01 4.5733e-01
1.5203e+01 4.3477e-01
1.5216e+01 4.4777e-01
1.5229e+01 4.8081e-01
1.5241e+01 5.5065e-01
1.5254e+01 5.9877e-01
1.5266e+01 5.8675e-01
1.5279e+01 5.3985e-01
1.5291e+01 4.5795e-01
1.5304e+01 4.0129e-01
1.5317e+01 3.8121e-01
1.5329e+01 3.8017e-01
1.5342e+01 3.6379e-01
1.5354e+01 3.8233e-01
1.5367e+01 3.5867e-01
1.5380e+01 3.5778e-01
1.5392e+01 3.9153e-01
1.5405e+01 4.1783e-01
1.5417e+01 4.8831e-01
1.5430e+01 6.0143e-01
1.5443e+01 7.6568e-01
1.5455e+01 9.0377e-01
1.5468e+01 9.2910e-01
1.5480e+01 8.1542e-01
1.5493e+01 7.0225e-01
1.5505e+01 6.2646e-01
1.5518e+01 6.2643e-01
1.5531e+01 6.0879e-01
1.5543e+01 6.1895e-01
1.5556e+01 6.0825e-01
1.5568e+01 5.6629e-01
1.5581e+01 4.7076e-01
1.5594e+01 4.7875e-01
1.5606e+01 4.0375e-01
1.5619e+01 4.0347e-01
1.5631e+01 4.2356e-01
1.5644e+01 4.2461e-01
1.5657e+01 4.3830e-01
1.5669e+01 4.8262e-01
1.5682e+01 5.4819e-01
1.5694e+01 5.6036e-01
1.5707e+01 5.4602e-01
1.5720e+01 5.0026e-01
1.5732e+01 4.4307e-01
1.5745e+01 4.6217e-01
1.5757e+01 4.9676e-01
1.5770e+01 6.2400e-01
1.5782e+01 8.2070e-01
1.5795e+01 1.0868e+00
1.5808e+01 1.2762e+00
1.5820e+01 1.3051e+00
1.5833e+01 1.1323e+00
1.5845e+01 8.6989e-01
1.5858e+01 6.8272e-01
1.5871e+01 5.7151e-01
1.5883e+01 5.4505e-01
1.5896e+01 4.8299e-01
1.5908e+01 4.5974e-01
1.5921e+01 4.2981e-01
1.5934e+01 4.3123e-01
1.5946e+01 4.4018e-01
1.5959e+01 4.3804e-01
1.5971e+01 4.2294e-01
1.5984e+01 4.8443e-01
1.5997e+01 5.9568e-01
1.6009e+01 7.8688e-01
1.6022e+01 9.8267e-01
1.6034e+01 1.0800e+00
1.6047e+01 1.0130e+00
1.6060e+01 8.3776e-01
1.6072e+01 6.2076e-01
1.6085e+01 5.2113e-01
1.6097e+01 4.7149e-01
1.6110e+01 4.2336e-01
1.6123e+01 4.1395e-01
1.6135e+01 4.1220e-01
1.6148e+01 3.9358e-01
1.6160e+01 4.1995e-01
1.6173e+01 4.4057e-01
1.6186e+01 4.5373e-01
1.6198e+01 4.6568e-01
1.6211e+01 5.1653e-01
1.6223e+01 5.2289e-01
1.6236e+01 5.0122e-01
1.6249e+01 4.7722e-01
1.6261e+01 4.6246e-01
1.6274e+01 4.7346e-01
1.6286e+01 4.5213e-01
1.6299e+01 4.7506e-01
1.6312e+01 4.8194e-01
1.6324e+01 4.8959e-01
1.6337e+01 4.9939e-01
1.6349e+01 5.1340e-01
1.6362e+01 5.3079e-01
1.6375e+01 6.0203e-01
1.6387e+01 7.2829e-01
1.6400e+01 8.5726e-01
1.6412e+01 8.7910e-01
1.6425e+01 7.8562e-01
1.6438e+01 6.2827e-01
1.6450e+01 5.0500e-01
1.6463e+01 4.1695e-01
1.6475e+01 3.8745e-01
1.6488e+01 3.6105e-01
1.6501e+01 3.5097e-01
1.6513e+01 3.6633e-01
1.6526e+01 3.5916e-01
1.6538e+01 3.7004e-01
1.6551e+01 3.8984e-01
1.6564e+01 3.9502e-01
1.6576e+01 4.4838e-01
1.6589e+01 4.8695e-01
1.6601e+01 5.7317e-01
1.6614e+01 6.1144e-01
1.6627e+01 5.7311e-01
1.6639e+01 5.3336e-01
1.6652e+01 4.3274e-01
1.6665e+01 3.9664e-01
1.6677e+01 3.9249e-01
1.6690e+01 3.9885e-01
1.6702e+01 4.1768e-01
1.6715e+01 4.2743e-01
1.6728e+01 4.3658e-01
1.6740e+01 4.7002e-01
1.6753e+01 5.0264e-01
1.6765e+01 5.3919e-01
1.6778e+01 5.5680e-01
1.6791e+01 5.4344e-01
1.6803e+01 5.9086e-01
1.6816e+01 6.1897e-01
1.6828e+01 7.1690e-01
1.6841e+01 8.0375e-01
1.6854e+01 9.1292e-01
1.6858e+01 1.0073e+00